"Time (s)","Gyroscope x (rad/s)","Gyroscope y (rad/s)","Gyroscope z (rad/s)","Absolute (rad/s)"
0.000000000E0,0.000000000E0,0.000000000E0,1.052631587E-1,1.052631587E-1
1.018869200E-2,0.000000000E0,0.000000000E0,1.052631587E-1,1.052631587E-1
2.068476900E-2,0.000000000E0,0.000000000E0,1.052631587E-1,1.052631587E-1
3.006600000E-2,-1.754385978E-2,0.000000000E0,1.052631587E-1,1.067151329E-1
4.181707700E-2,-1.754385978E-2,0.000000000E0,1.052631587E-1,1.067151329E-1
5.001761500E-2,-1.754385978E-2,0.000000000E0,1.052631587E-1,1.067151329E-1
6.004430700E-2,-1.754385978E-2,0.000000000E0,1.052631587E-1,1.067151329E-1
6.999800000E-2,-3.508771956E-2,0.000000000E0,1.228070185E-1,1.277212271E-1
8.125161500E-2,-3.508771956E-2,0.000000000E0,1.228070185E-1,1.277212271E-1
9.009361500E-2,-5.263157934E-2,0.000000000E0,1.228070185E-1,1.336100555E-1
1.008158460E-1,-5.263157934E-2,0.000000000E0,1.228070185E-1,1.336100555E-1
1.113355380E-1,-5.263157934E-2,0.000000000E0,1.228070185E-1,1.336100555E-1
1.199989230E-1,-5.263157934E-2,0.000000000E0,1.228070185E-1,1.336100555E-1
1.308593070E-1,-5.263157934E-2,0.000000000E0,1.228070185E-1,1.336100555E-1
1.400128460E-1,-3.508771956E-2,0.000000000E0,1.228070185E-1,1.277212271E-1
1.509205380E-1,-3.508771956E-2,0.000000000E0,1.228070185E-1,1.277212271E-1
1.600725380E-1,-5.263157934E-2,0.000000000E0,1.228070185E-1,1.336100555E-1
1.700307690E-1,-5.263157934E-2,0.000000000E0,1.228070185E-1,1.336100555E-1
1.800000770E-1,-5.263157934E-2,0.000000000E0,1.228070185E-1,1.336100555E-1
1.904148460E-1,-5.263157934E-2,0.000000000E0,1.228070185E-1,1.336100555E-1
2.000004610E-1,-7.017543912E-2,0.000000000E0,1.228070185E-1,1.414431194E-1
2.100921530E-1,-7.017543912E-2,0.000000000E0,1.052631587E-1,1.265105720E-1
2.202296920E-1,-7.017543912E-2,0.000000000E0,1.052631587E-1,1.265105720E-1
2.299977690E-1,-7.017543912E-2,0.000000000E0,8.771929890E-2,1.123355138E-1
2.407268460E-1,-7.017543912E-2,0.000000000E0,7.017543912E-2,9.924305775E-2
2.500105380E-1,-8.771929890E-2,0.000000000E0,5.263157934E-2,1.022974024E-1
2.616789230E-1,-1.052631587E-1,0.000000000E0,3.508771956E-2,1.109571117E-1
2.700282300E-1,-1.052631587E-1,0.000000000E0,3.508771956E-2,1.109571117E-1
2.801004610E-1,-1.228070185E-1,0.000000000E0,0.000000000E0,1.228070185E-1
2.899983840E-1,-1.228070185E-1,0.000000000E0,0.000000000E0,1.228070185E-1
3.000104610E-1,-1.228070185E-1,0.000000000E0,0.000000000E0,1.228070185E-1
3.106782300E-1,-1.228070185E-1,-1.754385978E-2,-1.754385978E-2,1.252882190E-1
3.200095380E-1,-1.228070185E-1,-1.754385978E-2,-1.754385978E-2,1.252882190E-1
3.304863840E-1,-1.228070185E-1,-1.754385978E-2,-1.754385978E-2,1.252882190E-1
3.400084610E-1,-1.228070185E-1,-1.754385978E-2,-1.754385978E-2,1.252882190E-1
3.501287690E-1,-1.228070185E-1,-1.754385978E-2,0.000000000E0,1.240538222E-1
3.599979230E-1,-1.052631587E-1,-1.754385978E-2,0.000000000E0,1.067151329E-1
3.701541530E-1,-1.052631587E-1,-1.754385978E-2,1.754385978E-2,1.081476149E-1
3.819992300E-1,-8.771929890E-2,-1.754385978E-2,5.263157934E-2,1.037908742E-1
3.919992300E-1,-7.017543912E-2,-1.754385978E-2,5.263157934E-2,8.945648336E-2
4.007010000E-1,-7.017543912E-2,-1.754385978E-2,5.263157934E-2,8.945648336E-2
4.100126920E-1,-7.017543912E-2,-1.754385978E-2,7.017543912E-2,1.007818016E-1
4.211953840E-1,-5.263157934E-2,-1.754385978E-2,1.052631587E-1,1.189882462E-1
4.300122300E-1,-5.263157934E-2,-1.754385978E-2,1.052631587E-1,1.189882462E-1
4.416396920E-1,-3.508771956E-2,-1.754385978E-2,1.228070185E-1,1.289205137E-1
4.500196150E-1,-3.508771956E-2,-1.754385978E-2,1.228070185E-1,1.289205137E-1
4.603153840E-1,-1.754385978E-2,-1.754385978E-2,1.228070185E-1,1.252882190E-1
4.699983070E-1,-1.754385978E-2,-1.754385978E-2,1.228070185E-1,1.252882190E-1
4.808546150E-1,-1.754385978E-2,-1.754385978E-2,1.228070185E-1,1.252882190E-1
4.899997690E-1,-1.754385978E-2,0.000000000E0,1.403508782E-1,1.414431194E-1
5.000103840E-1,0.000000000E0,0.000000000E0,1.403508782E-1,1.403508782E-1
5.117522300E-1,0.000000000E0,0.000000000E0,1.403508782E-1,1.403508782E-1
5.199993070E-1,0.000000000E0,0.000000000E0,1.403508782E-1,1.403508782E-1
5.312997690E-1,0.000000000E0,0.000000000E0,1.403508782E-1,1.403508782E-1
5.400139230E-1,0.000000000E0,0.000000000E0,1.228070185E-1,1.228070185E-1
5.507813840E-1,0.000000000E0,0.000000000E0,1.228070185E-1,1.228070185E-1
5.601526920E-1,0.000000000E0,0.000000000E0,1.052631587E-1,1.052631587E-1
5.700207690E-1,-1.754385978E-2,0.000000000E0,8.771929890E-2,8.945648336E-2
5.799977690E-1,-1.754385978E-2,0.000000000E0,7.017543912E-2,7.233518695E-2
5.900511530E-1,-3.508771956E-2,0.000000000E0,5.263157934E-2,6.325528601E-2
6.000003070E-1,-3.508771956E-2,0.000000000E0,5.263157934E-2,6.325528601E-2
6.100237690E-1,-3.508771956E-2,0.000000000E0,3.508771956E-2,4.962152887E-2
6.200100000E-1,-3.508771956E-2,-1.754385978E-2,1.754385978E-2,4.297350458E-2
6.313769230E-1,-3.508771956E-2,0.000000000E0,0.000000000E0,3.508771956E-2
6.404240770E-1,-3.508771956E-2,0.000000000E0,-1.754385978E-2,3.922926306E-2
6.500080770E-1,-3.508771956E-2,0.000000000E0,-3.508771956E-2,4.962152887E-2
6.611429230E-1,-3.508771956E-2,0.000000000E0,-5.263157934E-2,6.325528601E-2
6.705023840E-1,-3.508771956E-2,0.000000000E0,-7.017543912E-2,7.845852611E-2
6.867523070E-1,-1.754385978E-2,0.000000000E0,-1.052631587E-1,1.067151329E-1
6.900193840E-1,-1.754385978E-2,0.000000000E0,-1.052631587E-1,1.067151329E-1
7.000286150E-1,-1.754385978E-2,0.000000000E0,-1.052631587E-1,1.067151329E-1
7.100164610E-1,-1.754385978E-2,0.000000000E0,-1.052631587E-1,1.067151329E-1
7.201441530E-1,-1.754385978E-2,0.000000000E0,-1.052631587E-1,1.067151329E-1
7.300157690E-1,-1.754385978E-2,0.000000000E0,-8.771929890E-2,8.945648336E-2
7.412524610E-1,-3.508771956E-2,0.000000000E0,-8.771929890E-2,9.447657627E-2
7.500290770E-1,-3.508771956E-2,0.000000000E0,-1.052631587E-1,1.109571117E-1
7.599979230E-1,-7.017543912E-2,0.000000000E0,-1.228070185E-1,1.414431194E-1
7.704705380E-1,-1.052631587E-1,-1.754385978E-2,-1.403508782E-1,1.763136087E-1
7.800058460E-1,-1.228070185E-1,0.000000000E0,-1.929824501E-1,2.287439395E-1
7.900047690E-1,-1.228070185E-1,0.000000000E0,-2.280701697E-1,2.590319789E-1
7.999980000E-1,-1.052631587E-1,0.000000000E0,-2.456140369E-1,2.672201110E-1
8.100191530E-1,-8.771929890E-2,0.000000000E0,-2.631579041E-1,2.773927863E-1
8.213666150E-1,-8.771929890E-2,0.000000000E0,-2.456140369E-1,2.608082256E-1
8.300150770E-1,-1.052631587E-1,0.000000000E0,-2.280701697E-1,2.511898383E-1
8.400324610E-1,-1.052631587E-1,0.000000000E0,-2.105263174E-1,2.353755783E-1
8.500190770E-1,-8.771929890E-2,0.000000000E0,-1.754385978E-1,1.961463153E-1
8.599971530E-1,-8.771929890E-2,0.000000000E0,-1.403508782E-1,1.655084421E-1
8.699985380E-1,-8.771929890E-2,0.000000000E0,-1.228070185E-1,1.509179883E-1
8.829466150E-1,-8.771929890E-2,0.000000000E0,-1.228070185E-1,1.509179883E-1
8.900148460E-1,-1.052631587E-1,0.000000000E0,-1.228070185E-1,1.617463952E-1
9.000166920E-1,-1.052631587E-1,0.000000000E0,-1.403508782E-1,1.754385978E-1
9.123250000E-1,-1.052631587E-1,0.000000000E0,-1.754385978E-1,2.045948049E-1
9.200248460E-1,-1.228070185E-1,0.000000000E0,-1.929824501E-1,2.287439395E-1
9.302057690E-1,-1.228070185E-1,0.000000000E0,-2.280701697E-1,2.590319789E-1
9.400152300E-1,-1.228070185E-1,0.000000000E0,-2.456140369E-1,2.746048414E-1
9.502855380E-1,-1.052631587E-1,0.000000000E0,-2.631579041E-1,2.834297357E-1
9.600018460E-1,-1.052631587E-1,0.000000000E0,-2.631579041E-1,2.834297357E-1
9.700273840E-1,-8.771929890E-2,0.000000000E0,-2.631579041E-1,2.773927863E-1
9.799986920E-1,-5.263157934E-2,0.000000000E0,-2.631579041E-1,2.683694574E-1
9.904451530E-1,-3.508771956E-2,0.000000000E0,-2.456140369E-1,2.481076444E-1
1.004498384E0,-3.508771956E-2,0.000000000E0,-2.280701697E-1,2.307534406E-1
1.010656230E0,-3.508771956E-2,0.000000000E0,-1.929824501E-1,1.961463079E-1
1.020069923E0,-3.508771956E-2,0.000000000E0,-1.929824501E-1,1.961463079E-1
1.029997538E0,-3.508771956E-2,0.000000000E0,-1.929824501E-1,1.961463079E-1
1.042246384E0,-1.754385978E-2,0.000000000E0,-1.929824501E-1,1.937782575E-1
1.050013692E0,-1.754385978E-2,0.000000000E0,-2.105263174E-1,2.112560468E-1
1.060730461E0,-1.754385978E-2,0.000000000E0,-2.280701697E-1,2.287439383E-1
1.070401000E0,-1.754385978E-2,0.000000000E0,-2.456140369E-1,2.462398062E-1
1.080014384E0,-1.754385978E-2,0.000000000E0,-2.456140369E-1,2.462398062E-1
1.089997461E0,-1.754385978E-2,0.000000000E0,-2.631579041E-1,2.637420511E-1
1.100031461E0,-1.754385978E-2,0.000000000E0,-2.631579041E-1,2.637420511E-1
1.111858769E0,-1.754385978E-2,0.000000000E0,-2.456140369E-1,2.462398062E-1
1.120222461E0,-1.754385978E-2,0.000000000E0,-2.456140369E-1,2.462398062E-1
1.130380769E0,0.000000000E0,0.000000000E0,-2.456140369E-1,2.456140369E-1
1.140014769E0,0.000000000E0,0.000000000E0,-2.280701697E-1,2.280701697E-1
1.150089154E0,0.000000000E0,1.754385978E-2,-2.280701697E-1,2.287439383E-1
1.160148384E0,3.508771956E-2,1.754385978E-2,-2.280701697E-1,2.314193972E-1
1.170017538E0,5.263157934E-2,1.754385978E-2,-2.280701697E-1,2.347208394E-1
1.179997692E0,7.017543912E-2,1.754385978E-2,-2.280701697E-1,2.392663402E-1
1.190000923E0,7.017543912E-2,1.754385978E-2,-2.280701697E-1,2.392663402E-1
1.203222307E0,8.771929890E-2,1.754385978E-2,-2.280701697E-1,2.449866623E-1
1.210561538E0,1.052631587E-1,3.508771956E-2,-2.280701697E-1,2.536286319E-1
1.220058692E0,1.052631587E-1,3.508771956E-2,-2.280701697E-1,2.536286319E-1
1.229997307E0,1.228070185E-1,3.508771956E-2,-2.280701697E-1,2.613976170E-1
1.241778846E0,1.403508782E-1,3.508771956E-2,-2.280701697E-1,2.700842820E-1
1.249998923E0,1.403508782E-1,3.508771956E-2,-2.280701697E-1,2.700842820E-1
1.260076154E0,1.754385978E-1,5.263157934E-2,-2.105263174E-1,2.790521726E-1
1.270014538E0,1.754385978E-1,5.263157934E-2,-2.105263174E-1,2.790521726E-1
1.281465307E0,1.929824501E-1,5.263157934E-2,-2.105263174E-1,2.904025473E-1
1.290020307E0,1.929824501E-1,5.263157934E-2,-2.105263174E-1,2.904025473E-1
1.300605461E0,1.929824501E-1,5.263157934E-2,-2.280701697E-1,3.033616843E-1
1.310351692E0,1.929824501E-1,5.263157934E-2,-2.280701697E-1,3.033616843E-1
1.320003384E0,1.929824501E-1,5.263157934E-2,-2.456140369E-1,3.167626309E-1
1.330337461E0,1.929824501E-1,5.263157934E-2,-2.456140369E-1,3.167626309E-1
1.340000923E0,1.929824501E-1,5.263157934E-2,-2.456140369E-1,3.167626309E-1
1.350013769E0,2.105263174E-1,5.263157934E-2,-2.456140369E-1,3.277463479E-1
1.361118077E0,2.280701697E-1,5.263157934E-2,-2.280701697E-1,3.268058870E-1
1.369998923E0,2.456140369E-1,5.263157934E-2,-2.280701697E-1,3.392820959E-1
1.380004307E0,2.631579041E-1,5.263157934E-2,-2.280701697E-1,3.521905279E-1
1.390092000E0,2.631579041E-1,5.263157934E-2,-2.105263174E-1,3.410916240E-1
1.403497769E0,3.157894611E-1,5.263157934E-2,-2.105263174E-1,3.831636690E-1
1.410006461E0,3.157894611E-1,5.263157934E-2,-2.105263174E-1,3.831636690E-1
1.420020538E0,3.333333433E-1,5.263157934E-2,-2.105263174E-1,3.977468179E-1
1.429998384E0,3.508771956E-1,5.263157934E-2,-1.929824501E-1,4.038899796E-1
1.441541154E0,3.859649003E-1,7.017543912E-2,-1.578947306E-1,4.228761550E-1
1.450005154E0,3.859649003E-1,7.017543912E-2,-1.578947306E-1,4.228761550E-1
1.460335846E0,4.035087824E-1,7.017543912E-2,-1.403508782E-1,4.329460691E-1
1.470081077E0,4.210526347E-1,7.017543912E-2,-1.228070185E-1,4.441750525E-1
1.480013538E0,4.210526347E-1,7.017543912E-2,-1.052631587E-1,4.396478659E-1
1.489998615E0,4.561403394E-1,7.017543912E-2,-7.017543912E-2,4.668117326E-1
1.500010692E0,4.561403394E-1,7.017543912E-2,-7.017543912E-2,4.668117326E-1
1.510844307E0,4.912280738E-1,7.017543912E-2,-5.263157934E-2,4.989986933E-1
1.520248077E0,5.263158083E-1,7.017543912E-2,-3.508771956E-2,5.321316288E-1
1.530018538E0,5.438596606E-1,8.771929890E-2,0.000000000E0,5.508883788E-1
1.539999615E0,5.438596606E-1,7.017543912E-2,0.000000000E0,5.483684188E-1
1.550252923E0,5.438596606E-1,7.017543912E-2,1.754385978E-2,5.486489859E-1
1.559999538E0,5.438596606E-1,7.017543912E-2,3.508771956E-2,5.494898277E-1
1.570015000E0,5.263158083E-1,7.017543912E-2,3.508771956E-2,5.321316288E-1
1.580081615E0,5.263158083E-1,7.017543912E-2,3.508771956E-2,5.321316288E-1
1.590006154E0,5.438596606E-1,7.017543912E-2,3.508771956E-2,5.494898277E-1
1.601314230E0,5.438596606E-1,7.017543912E-2,5.263157934E-2,5.508883788E-1
1.610014692E0,5.263158083E-1,7.017543912E-2,8.771929890E-2,5.381706028E-1
1.621639307E0,5.263158083E-1,5.263157934E-2,1.228070185E-1,5.430101076E-1
1.630017923E0,5.087719560E-1,5.263157934E-2,1.578947306E-1,5.353034021E-1
1.640029154E0,4.912280738E-1,5.263157934E-2,1.929824501E-1,5.303935612E-1
1.650001461E0,4.736842215E-1,5.263157934E-2,2.105263174E-1,5.210260600E-1
1.661110230E0,4.561403394E-1,5.263157934E-2,2.280701697E-1,5.126890819E-1
1.669998461E0,4.385964870E-1,5.263157934E-2,2.105263174E-1,4.893447577E-1
1.680021000E0,4.210526347E-1,5.263157934E-2,2.105263174E-1,4.736842141E-1
1.690389692E0,3.859649003E-1,5.263157934E-2,1.929824501E-1,4.347196952E-1
1.700006923E0,3.684210479E-1,7.017543912E-2,1.578947306E-1,4.069267830E-1
1.710135230E0,3.508771956E-1,7.017543912E-2,1.403508782E-1,3.843667099E-1
1.720015692E0,3.333333433E-1,7.017543912E-2,8.771929890E-2,3.517533019E-1
1.730743000E0,3.157894611E-1,8.771929890E-2,5.263157934E-2,3.319453906E-1
1.740289154E0,2.807017565E-1,1.052631587E-1,0.000000000E0,2.997896073E-1
1.750351077E0,2.456140369E-1,1.052631587E-1,1.754385978E-2,2.677953971E-1
1.760019692E0,2.105263174E-1,7.017543912E-2,1.052631587E-1,2.456140369E-1
1.770584077E0,2.105263174E-1,5.263157934E-2,1.052631587E-1,2.411881963E-1
1.779999615E0,2.280701697E-1,5.263157934E-2,1.052631587E-1,2.566445363E-1
1.790204461E0,2.105263174E-1,5.263157934E-2,1.228070185E-1,2.493450967E-1
1.800606923E0,1.929824501E-1,5.263157934E-2,1.403508782E-1,2.443576850E-1
1.809998692E0,2.105263174E-1,3.508771956E-2,1.403508782E-1,2.554424542E-1
1.820203692E0,2.105263174E-1,3.508771956E-2,1.578947306E-1,2.654867686E-1
1.830008769E0,2.105263174E-1,3.508771956E-2,1.578947306E-1,2.654867686E-1
1.841165692E0,1.929824501E-1,3.508771956E-2,1.578947306E-1,2.518017475E-1
1.850005769E0,2.105263174E-1,3.508771956E-2,1.578947306E-1,2.654867686E-1
1.860015077E0,2.105263174E-1,3.508771956E-2,1.403508782E-1,2.554424542E-1
1.869997923E0,2.105263174E-1,5.263157934E-2,1.228070185E-1,2.493450967E-1
1.880133154E0,2.280701697E-1,5.263157934E-2,1.052631587E-1,2.566445363E-1
1.890403692E0,2.456140369E-1,5.263157934E-2,1.052631587E-1,2.723539441E-1
1.900008846E0,2.631579041E-1,5.263157934E-2,8.771929890E-2,2.823417097E-1
1.910200230E0,2.631579041E-1,5.263157934E-2,1.052631587E-1,2.882750392E-1
1.920013384E0,2.807017565E-1,5.263157934E-2,8.771929890E-2,2.987611665E-1
1.930034923E0,2.982456088E-1,7.017543912E-2,8.771929890E-2,3.187000327E-1
1.939998077E0,2.982456088E-1,7.017543912E-2,8.771929890E-2,3.187000327E-1
1.950013230E0,3.157894611E-1,7.017543912E-2,7.017543912E-2,3.310168701E-1
1.960557769E0,3.333333433E-1,7.017543912E-2,3.508771956E-2,3.424424887E-1
1.970013615E0,3.684210479E-1,7.017543912E-2,1.754385978E-2,3.754549878E-1
1.980001230E0,3.684210479E-1,7.017543912E-2,0.000000000E0,3.750448784E-1
1.991669769E0,3.859649003E-1,7.017543912E-2,0.000000000E0,3.922926159E-1
2.000025769E0,3.859649003E-1,7.017543912E-2,-1.754385978E-2,3.926847126E-1
2.009998000E0,3.684210479E-1,7.017543912E-2,-3.508771956E-2,3.766826368E-1
2.020032230E0,3.508771956E-1,7.017543912E-2,-3.508771956E-2,3.595421348E-1
2.030239154E0,3.333333433E-1,7.017543912E-2,-5.263157934E-2,3.446821625E-1
2.040017769E0,3.508771956E-1,7.017543912E-2,-7.017543912E-2,3.646422780E-1
2.049999769E0,3.859649003E-1,7.017543912E-2,-8.771929890E-2,4.019803128E-1
2.060011846E0,4.035087824E-1,5.263157934E-2,-1.052631587E-1,4.203210121E-1
2.070004769E0,4.210526347E-1,5.263157934E-2,-1.052631587E-1,4.371907329E-1
2.080024461E0,4.210526347E-1,5.263157934E-2,-1.052631587E-1,4.371907329E-1
2.090075000E0,4.035087824E-1,7.017543912E-2,-1.228070185E-1,4.275809789E-1
2.100881461E0,4.035087824E-1,7.017543912E-2,-1.403508782E-1,4.329460691E-1
2.110022384E0,4.035087824E-1,7.017543912E-2,-1.228070185E-1,4.275809789E-1
2.120028307E0,4.035087824E-1,7.017543912E-2,-1.052631587E-1,4.228761784E-1
2.130090230E0,4.035087824E-1,7.017543912E-2,-1.052631587E-1,4.228761784E-1
2.140000769E0,4.035087824E-1,5.263157934E-2,-1.228070185E-1,4.250540958E-1
2.150319923E0,4.210526347E-1,5.263157934E-2,-1.403508782E-1,4.469382210E-1
2.160721923E0,4.385964870E-1,5.263157934E-2,-1.403508782E-1,4.635033232E-1
2.170045615E0,4.385964870E-1,5.263157934E-2,-1.578947306E-1,4.691137469E-1
2.180230077E0,4.561403394E-1,5.263157934E-2,-1.578947306E-1,4.855562154E-1
2.190313230E0,4.561403394E-1,5.263157934E-2,-1.578947306E-1,4.855562154E-1
2.200510384E0,4.736842215E-1,3.508771956E-2,-1.578947306E-1,5.005383459E-1
2.210003307E0,4.736842215E-1,3.508771956E-2,-1.578947306E-1,5.005383459E-1
2.220013307E0,4.736842215E-1,3.508771956E-2,-1.578947306E-1,5.005383459E-1
2.229999000E0,4.912280738E-1,3.508771956E-2,-1.578947306E-1,5.171720357E-1
2.240106923E0,5.087719560E-1,3.508771956E-2,-1.403508782E-1,5.289408476E-1
2.250000923E0,5.263158083E-1,1.754385978E-2,-1.228070185E-1,5.407380890E-1
2.260010769E0,5.263158083E-1,1.754385978E-2,-1.228070185E-1,5.407380890E-1
2.270000077E0,5.438596606E-1,1.754385978E-2,-1.052631587E-1,5.542305026E-1
2.280006923E0,5.614035130E-1,1.754385978E-2,-8.771929890E-2,5.684860304E-1
2.290008384E0,5.964912176E-1,0.000000000E0,-7.017543912E-2,6.006049991E-1
2.300279384E0,6.315789223E-1,0.000000000E0,-5.263157934E-2,6.337681107E-1
2.310010692E0,6.491228342E-1,0.000000000E0,-5.263157934E-2,6.512530515E-1
2.320000384E0,6.666666865E-1,0.000000000E0,-3.508771956E-2,6.675894090E-1
2.330688923E0,7.017543912E-1,0.000000000E0,-3.508771956E-2,7.026310366E-1
2.340045538E0,7.192982435E-1,0.000000000E0,-1.754385978E-2,7.195121612E-1
2.350020154E0,7.368420959E-1,0.000000000E0,0.000000000E0,7.368420959E-1
2.360006230E0,7.192982435E-1,0.000000000E0,0.000000000E0,7.192982435E-1
2.370025000E0,7.017543912E-1,0.000000000E0,1.754385978E-2,7.019736552E-1
2.382068692E0,6.315789223E-1,0.000000000E0,7.017543912E-2,6.354655988E-1
2.393669692E0,5.789473653E-1,0.000000000E0,8.771929890E-2,5.855550590E-1
2.400031154E0,5.789473653E-1,0.000000000E0,8.771929890E-2,5.855550590E-1
2.410003615E0,5.263158083E-1,0.000000000E0,1.052631587E-1,5.367389148E-1
2.420061230E0,4.736842215E-1,-1.754385978E-2,1.228070185E-1,4.896591595E-1
2.430077231E0,4.210526347E-1,-1.754385978E-2,1.228070185E-1,4.389472315E-1
2.441185307E0,3.684210479E-1,-3.508771956E-2,1.052631587E-1,3.847668764E-1
2.450001384E0,2.982456088E-1,-3.508771956E-2,1.052631587E-1,3.182167874E-1
2.460011384E0,2.280701697E-1,-5.263157934E-2,8.771929890E-2,2.499615187E-1
2.470534231E0,1.403508782E-1,-5.263157934E-2,7.017543912E-2,1.655084421E-1
2.480007077E0,3.508771956E-2,-5.263157934E-2,5.263157934E-2,8.228799640E-2
2.490018461E0,-1.754385978E-2,-7.017543912E-2,3.508771956E-2,8.039606542E-2
2.500223615E0,-1.052631587E-1,-7.017543912E-2,1.754385978E-2,1.277212271E-1
2.510071769E0,-2.105263174E-1,-8.771929890E-2,1.754385978E-2,2.287439457E-1
2.520000307E0,-3.157894611E-1,-8.771929890E-2,1.754385978E-2,3.282155484E-1
2.531036538E0,-4.035087824E-1,-8.771929890E-2,0.000000000E0,4.129334242E-1
2.540028538E0,-4.912280738E-1,-1.052631587E-1,0.000000000E0,5.023796902E-1
2.550013846E0,-6.140350699E-1,-1.052631587E-1,0.000000000E0,6.229922951E-1
2.560008615E0,-7.368420959E-1,-1.052631587E-1,0.000000000E0,7.443229184E-1
2.570008384E0,-8.771929741E-1,-8.771929890E-2,1.754385978E-2,8.817425793E-1
2.580006461E0,-1.017543912E0,-8.771929890E-2,3.508771956E-2,1.021920465E0
2.591174231E0,-1.122807026E0,-7.017543912E-2,3.508771956E-2,1.125544916E0
2.600893923E0,-1.192982435E0,-7.017543912E-2,3.508771956E-2,1.195559631E0
2.610003307E0,-1.210526347E0,-8.771929890E-2,3.508771956E-2,1.214207503E0
2.622019231E0,-1.263157845E0,-8.771929890E-2,3.508771956E-2,1.266686056E0
2.630077538E0,-1.350877166E0,-8.771929890E-2,5.263157934E-2,1.354744949E0
2.640007307E0,-1.421052575E0,-8.771929890E-2,5.263157934E-2,1.424729862E0
2.650013000E0,-1.508771896E0,-8.771929890E-2,5.263157934E-2,1.512235892E0
2.660855769E0,-1.596491218E0,-8.771929890E-2,7.017543912E-2,1.600438526E0
2.670678923E0,-1.684210539E0,-8.771929890E-2,8.771929890E-2,1.688773072E0
2.680011077E0,-1.736842155E0,-8.771929890E-2,1.052631587E-1,1.742238698E0
2.691004154E0,-1.771929860E0,-1.052631587E-1,1.052631587E-1,1.778172122E0
2.699999538E0,-1.771929860E0,-1.052631587E-1,1.228070185E-1,1.779296863E0
2.711658692E0,-1.771929860E0,-1.052631587E-1,1.403508782E-1,1.780593758E0
2.720045923E0,-1.736842155E0,-1.052631587E-1,1.403508782E-1,1.745680204E0
2.730688000E0,-1.684210539E0,-1.228070185E-1,1.578947306E-1,1.696047596E0
2.740002846E0,-1.631578922E0,-1.228070185E-1,1.754385978E-1,1.645572862E0
2.750814384E0,-1.578947425E0,-1.228070185E-1,1.929824501E-1,1.595430588E0
2.760007154E0,-1.526315808E0,-1.228070185E-1,2.105263174E-1,1.545652885E0
2.770018538E0,-1.456140399E0,-1.228070185E-1,2.280701697E-1,1.479000483E0
2.780067538E0,-1.403508782E0,-1.228070185E-1,2.456140369E-1,1.430120527E0
2.791595846E0,-1.333333373E0,-1.228070185E-1,2.631579041E-1,1.364592075E0
2.800023615E0,-1.263157845E0,-1.228070185E-1,2.807017565E-1,1.299785667E0
2.810010461E0,-1.228070140E0,-1.228070185E-1,2.807017565E-1,1.265713755E0
2.820016846E0,-1.192982435E0,-1.052631587E-1,2.631579041E-1,1.226189017E0
2.829999846E0,-1.175438643E0,-1.052631587E-1,2.631579041E-1,1.209127130E0
2.840024231E0,-1.175438643E0,-1.052631587E-1,2.631579041E-1,1.209127130E0
2.850998923E0,-1.157894731E0,-1.052631587E-1,2.631579041E-1,1.192079117E0
2.860002231E0,-1.157894731E0,-1.052631587E-1,2.631579041E-1,1.192079117E0
2.870082000E0,-1.157894731E0,-1.052631587E-1,2.631579041E-1,1.192079117E0
2.883440231E0,-1.157894731E0,-1.052631587E-1,2.631579041E-1,1.192079117E0
2.890265077E0,-1.140350819E0,-1.052631587E-1,2.807017565E-1,1.179098723E0
2.900009923E0,-1.087719321E0,-1.228070185E-1,2.982456088E-1,1.134533088E0
2.911083538E0,-1.052631617E0,-1.228070185E-1,3.157894611E-1,1.105819998E0
2.920020307E0,-1.035087705E0,-1.228070185E-1,3.333333433E-1,1.094348773E0
2.931519769E0,-1.000000000E0,-1.403508782E-1,3.157894611E-1,1.058027104E0
2.939999307E0,-9.473684430E-1,-1.403508782E-1,2.982456088E-1,1.003073167E0
2.950143384E0,-9.122806787E-1,-1.403508782E-1,2.807017565E-1,9.647527569E-1
2.960014154E0,-9.298245907E-1,-1.403508782E-1,2.631579041E-1,9.764856481E-1
2.970775923E0,-9.473684430E-1,-1.228070185E-1,2.456140369E-1,9.863644285E-1
2.980777692E0,-9.473684430E-1,-1.052631587E-1,2.280701697E-1,9.801037199E-1
2.989998231E0,-9.298245907E-1,-1.052631587E-1,2.105263174E-1,9.591534978E-1
3.000706692E0,-9.122806787E-1,-8.771929890E-2,1.929824501E-1,9.365857880E-1
3.009999384E0,-8.947368264E-1,-8.771929890E-2,1.754385978E-1,9.159843697E-1
3.020041384E0,-8.771929741E-1,-7.017543912E-2,1.578947306E-1,8.940485736E-1
3.030016923E0,-8.771929741E-1,-7.017543912E-2,1.403508782E-1,8.911175428E-1
3.040012154E0,-8.771929741E-1,-7.017543912E-2,1.403508782E-1,8.911175428E-1
3.050004538E0,-8.771929741E-1,-5.263157934E-2,1.228070185E-1,8.873100702E-1
3.060086154E0,-8.771929741E-1,-5.263157934E-2,1.403508782E-1,8.899078413E-1
3.070132846E0,-8.596491218E-1,-5.263157934E-2,1.403508782E-1,8.726196564E-1
3.080016384E0,-8.421052694E-1,-3.508771956E-2,1.578947306E-1,8.574982092E-1
3.090017923E0,-8.245614171E-1,-3.508771956E-2,1.578947306E-1,8.402758027E-1
3.100282615E0,-8.245614171E-1,-3.508771956E-2,1.754385978E-1,8.437484105E-1
3.110171538E0,-8.070175648E-1,-3.508771956E-2,2.105263174E-1,8.347633367E-1
3.120019154E0,-8.245614171E-1,-3.508771956E-2,2.280701697E-1,8.562410180E-1
3.136122384E0,-8.421052694E-1,-3.508771956E-2,2.631579041E-1,8.829634847E-1
3.140017846E0,-8.771929741E-1,-3.508771956E-2,2.807017565E-1,9.216789777E-1
3.151132769E0,-8.947368264E-1,-1.754385978E-2,3.157894611E-1,9.489914432E-1
3.160016307E0,-9.122806787E-1,-1.754385978E-2,3.333333433E-1,9.714293292E-1
3.170348846E0,-9.298245907E-1,-1.754385978E-2,3.508771956E-1,9.939800616E-1
3.181055154E0,-9.649122953E-1,-1.754385978E-2,3.508771956E-1,1.026877953E0
3.190029384E0,-9.824561477E-1,-1.754385978E-2,3.333333433E-1,1.037612156E0
3.200038846E0,-9.824561477E-1,-1.754385978E-2,3.333333433E-1,1.037612156E0
3.210004846E0,-1.000000000E0,-1.754385978E-2,3.157894611E-1,1.048823517E0
3.220049307E0,-1.035087705E0,-1.754385978E-2,2.631579041E-1,1.068160300E0
3.229999615E0,-1.052631617E0,-1.754385978E-2,2.105263174E-1,1.073621180E0
3.240104846E0,-1.070175409E0,-1.754385978E-2,1.578947306E-1,1.081902925E0
3.249998538E0,-1.070175409E0,0.000000000E0,1.228070185E-1,1.077198668E0
3.260016615E0,-1.087719321E0,0.000000000E0,7.017543912E-2,1.089980694E0
3.270004000E0,-1.105263114E0,0.000000000E0,3.508771956E-2,1.105819922E0
3.281336538E0,-1.105263114E0,0.000000000E0,1.754385978E-2,1.105402342E0
3.290024231E0,-1.105263114E0,0.000000000E0,1.754385978E-2,1.105402342E0
3.300005384E0,-1.105263114E0,0.000000000E0,1.754385978E-2,1.105402342E0
3.310031154E0,-1.087719321E0,0.000000000E0,3.508771956E-2,1.088285105E0
3.320163231E0,-1.000000000E0,-1.754385978E-2,5.263157934E-2,1.001537753E0
3.330011615E0,-1.000000000E0,-1.754385978E-2,5.263157934E-2,1.001537753E0
3.339997846E0,-9.824561477E-1,0.000000000E0,7.017543912E-2,9.849592247E-1
3.349998538E0,-9.649122953E-1,0.000000000E0,7.017543912E-2,9.674607640E-1
3.359998000E0,-9.122806787E-1,0.000000000E0,5.263157934E-2,9.137976362E-1
3.371107615E0,-8.596491218E-1,0.000000000E0,3.508771956E-2,8.603648997E-1
3.380192077E0,-8.070175648E-1,0.000000000E0,1.754385978E-2,8.072082364E-1
3.390008307E0,-7.368420959E-1,0.000000000E0,0.000000000E0,7.368420959E-1
3.400031154E0,-6.666666865E-1,1.754385978E-2,-1.754385978E-2,6.671282073E-1
3.410005077E0,-6.140350699E-1,1.754385978E-2,-5.263157934E-2,6.165362417E-1
3.420096154E0,-5.438596606E-1,3.508771956E-2,-7.017543912E-2,5.494898277E-1
3.430004307E0,-4.912280738E-1,3.508771956E-2,-8.771929890E-2,5.002307907E-1
3.440011923E0,-4.385964870E-1,3.508771956E-2,-1.052631587E-1,4.524139245E-1
3.450014923E0,-3.859649003E-1,3.508771956E-2,-1.403508782E-1,4.121873619E-1
3.460011692E0,-3.508771956E-1,3.508771956E-2,-1.578947306E-1,3.863634305E-1
3.470127769E0,-3.157894611E-1,3.508771956E-2,-1.929824501E-1,3.717477073E-1
3.480925384E0,-2.807017565E-1,1.754385978E-2,-1.929824501E-1,3.410916140E-1
3.490016307E0,-2.280701697E-1,1.754385978E-2,-2.105263174E-1,3.108779819E-1
3.500003615E0,-1.929824501E-1,1.754385978E-2,-2.280701697E-1,2.992758182E-1
3.510012846E0,-1.578947306E-1,1.754385978E-2,-2.280701697E-1,2.779470008E-1
3.520003461E0,-1.228070185E-1,0.000000000E0,-2.105263174E-1,2.437270894E-1
3.530025846E0,-8.771929890E-2,0.000000000E0,-2.105263174E-1,2.280701771E-1
3.540680615E0,-7.017543912E-2,0.000000000E0,-2.105263174E-1,2.219142234E-1
3.550011846E0,-3.508771956E-2,0.000000000E0,-2.105263174E-1,2.134302658E-1
3.560111077E0,-1.754385978E-2,0.000000000E0,-2.105263174E-1,2.112560468E-1
3.570015307E0,0.000000000E0,0.000000000E0,-2.105263174E-1,2.105263174E-1
3.580596538E0,0.000000000E0,0.000000000E0,-2.105263174E-1,2.105263174E-1
3.590009538E0,1.754385978E-2,0.000000000E0,-2.280701697E-1,2.287439383E-1
3.605403692E0,5.263157934E-2,0.000000000E0,-2.456140369E-1,2.511898451E-1
3.610027615E0,5.263157934E-2,0.000000000E0,-2.456140369E-1,2.511898451E-1
3.620081384E0,8.771929890E-2,-1.754385978E-2,-2.631579041E-1,2.779470182E-1
3.630005384E0,1.052631587E-1,-1.754385978E-2,-2.807017565E-1,3.003025070E-1
3.640014307E0,1.052631587E-1,-1.754385978E-2,-2.982456088E-1,3.167626284E-1
3.650001538E0,1.052631587E-1,-1.754385978E-2,-2.982456088E-1,3.167626284E-1
3.660151846E0,8.771929890E-2,-1.754385978E-2,-3.157894611E-1,3.282155484E-1
3.670053231E0,7.017543912E-2,-1.754385978E-2,-3.157894611E-1,3.239681513E-1
3.680013384E0,5.263157934E-2,0.000000000E0,-2.982456088E-1,3.028539686E-1
3.690029923E0,5.263157934E-2,0.000000000E0,-2.982456088E-1,3.028539686E-1
3.701255231E0,8.771929890E-2,0.000000000E0,-2.982456088E-1,3.108779802E-1
3.710026231E0,1.228070185E-1,0.000000000E0,-2.982456088E-1,3.225399308E-1
3.720008538E0,1.754385978E-1,0.000000000E0,-2.982456088E-1,3.460189948E-1
3.730020461E0,2.280701697E-1,0.000000000E0,-3.157894611E-1,3.895368867E-1
3.740021384E0,2.982456088E-1,0.000000000E0,-3.157894611E-1,4.343655453E-1
3.750010538E0,3.508771956E-1,0.000000000E0,-3.157894611E-1,4.720569777E-1
3.760045384E0,3.859649003E-1,0.000000000E0,-3.157894611E-1,4.986901723E-1
3.770003923E0,4.035087824E-1,1.754385978E-2,-3.157894611E-1,5.126890951E-1
3.780027231E0,4.210526347E-1,1.754385978E-2,-3.157894611E-1,5.266081009E-1
3.791483308E0,4.385964870E-1,1.754385978E-2,-3.157894611E-1,5.407380597E-1
3.800417000E0,4.561403394E-1,1.754385978E-2,-3.157894611E-1,5.550628613E-1
3.810007769E0,4.736842215E-1,1.754385978E-2,-3.157894611E-1,5.695678296E-1
3.821668231E0,5.087719560E-1,1.754385978E-2,-3.157894611E-1,5.990656675E-1
3.830095769E0,5.263158083E-1,1.754385978E-2,-3.157894611E-1,6.140350974E-1
3.841232154E0,5.614035130E-1,1.754385978E-2,-3.157894611E-1,6.443637755E-1
3.850024538E0,5.789473653E-1,1.754385978E-2,-3.157894611E-1,6.597051027E-1
3.860006000E0,5.964912176E-1,1.754385978E-2,-3.157894611E-1,6.751537184E-1
3.870026846E0,6.140350699E-1,1.754385978E-2,-2.982456088E-1,6.828596469E-1
3.880011769E0,6.315789223E-1,1.754385978E-2,-2.807017565E-1,6.913705216E-1
3.890335923E0,6.666666865E-1,3.508771956E-2,-2.807017565E-1,7.242023854E-1
3.900647077E0,6.842105389E-1,3.508771956E-2,-2.631579041E-1,7.339123191E-1
3.910014461E0,7.192982435E-1,5.263157934E-2,-2.456140369E-1,7.618965162E-1
3.920004154E0,7.543859482E-1,5.263157934E-2,-2.456140369E-1,7.951065948E-1
3.930043769E0,7.719298005E-1,5.263157934E-2,-2.280701697E-1,8.066360408E-1
3.940204692E0,8.070175648E-1,5.263157934E-2,-2.280701697E-1,8.402758091E-1
3.950016077E0,8.245614171E-1,7.017543912E-2,-2.105263174E-1,8.539013135E-1
3.962378692E0,8.421052694E-1,7.017543912E-2,-2.105263174E-1,8.708542974E-1
3.971359000E0,8.596491218E-1,7.017543912E-2,-2.105263174E-1,8.878302400E-1
3.982382077E0,8.771929741E-1,7.017543912E-2,-1.929824501E-1,9.009075047E-1
3.989999769E0,8.771929741E-1,8.771929890E-2,-1.929824501E-1,9.024435801E-1
4.000155538E0,8.947368264E-1,8.771929890E-2,-1.929824501E-1,9.195057857E-1
4.009999000E0,9.122806787E-1,8.771929890E-2,-1.929824501E-1,9.365857880E-1
4.021285384E0,9.122806787E-1,8.771929890E-2,-1.929824501E-1,9.365857880E-1
4.030001000E0,8.947368264E-1,8.771929890E-2,-1.929824501E-1,9.195057857E-1
4.040048077E0,8.947368264E-1,8.771929890E-2,-1.929824501E-1,9.195057857E-1
4.050825000E0,8.947368264E-1,1.052631587E-1,-1.929824501E-1,9.213449664E-1
4.060013615E0,8.947368264E-1,1.052631587E-1,-1.754385978E-1,9.178306068E-1
4.071689615E0,8.947368264E-1,1.052631587E-1,-1.754385978E-1,9.178306068E-1
4.080007538E0,8.947368264E-1,1.052631587E-1,-1.578947306E-1,9.146393098E-1
4.092081923E0,9.122806787E-1,1.052631587E-1,-1.578947306E-1,9.318085186E-1
4.100117077E0,9.298245907E-1,1.052631587E-1,-1.228070185E-1,9.437879348E-1
4.110489000E0,9.473684430E-1,1.052631587E-1,-1.052631587E-1,9.589930302E-1
4.120033384E0,9.649122953E-1,1.052631587E-1,-7.017543912E-2,9.731704180E-1
4.132525077E0,9.824561477E-1,1.228070185E-1,-5.263157934E-2,9.914997373E-1
4.140026615E0,1.000000000E0,1.228070185E-1,-3.508771956E-2,1.008123361E0
4.150415077E0,1.000000000E0,1.228070185E-1,-1.754385978E-2,1.007665297E0
4.162042461E0,1.017543912E0,1.403508782E-1,-1.754385978E-2,1.027327489E0
4.170708154E0,1.017543912E0,1.403508782E-1,0.000000000E0,1.027177678E0
4.181266077E0,1.017543912E0,1.403508782E-1,0.000000000E0,1.027177678E0
4.189998308E0,1.017543912E0,1.403508782E-1,0.000000000E0,1.027177678E0
4.200016923E0,1.035087705E0,1.403508782E-1,0.000000000E0,1.044559680E0
4.209998769E0,1.035087705E0,1.578947306E-1,0.000000000E0,1.047061270E0
4.220244000E0,1.070175409E0,1.578947306E-1,1.754385978E-2,1.081902925E0
4.230019000E0,1.070175409E0,1.578947306E-1,1.754385978E-2,1.081902925E0
4.241340846E0,1.105263114E0,1.754385978E-1,3.508771956E-2,1.119650124E0
4.250148846E0,1.105263114E0,1.754385978E-1,3.508771956E-2,1.119650124E0
4.260871923E0,1.140350819E0,1.754385978E-1,5.263157934E-2,1.154967001E0
4.270008154E0,1.157894731E0,1.754385978E-1,7.017543912E-2,1.173210766E0
4.280005308E0,1.175438643E0,1.754385978E-1,8.771929890E-2,1.191691814E0
4.290005308E0,1.175438643E0,1.754385978E-1,1.052631587E-1,1.193111494E0
4.300005154E0,1.192982435E0,1.754385978E-1,1.228070185E-1,1.212050888E0
4.311057923E0,1.192982435E0,1.578947306E-1,1.403508782E-1,1.211542903E0
4.320005923E0,1.192982435E0,1.578947306E-1,1.403508782E-1,1.211542903E0
4.329999308E0,1.192982435E0,1.403508782E-1,1.403508782E-1,1.209381589E0
4.339996154E0,1.210526347E0,1.403508782E-1,1.403508782E-1,1.226690986E0
4.350008769E0,1.210526347E0,1.403508782E-1,1.403508782E-1,1.226690986E0
4.360033538E0,1.210526347E0,1.403508782E-1,1.228070185E-1,1.224807728E0
4.370452923E0,1.210526347E0,1.403508782E-1,1.052631587E-1,1.223173225E0
4.380011923E0,1.210526347E0,1.403508782E-1,1.052631587E-1,1.223173225E0
4.390264231E0,1.210526347E0,1.403508782E-1,1.052631587E-1,1.223173225E0
4.400348308E0,1.210526347E0,1.403508782E-1,1.052631587E-1,1.223173225E0
4.410048384E0,1.210526347E0,1.403508782E-1,1.052631587E-1,1.223173225E0
4.420004154E0,1.210526347E0,1.403508782E-1,1.052631587E-1,1.223173225E0
4.430006769E0,1.210526347E0,1.403508782E-1,1.052631587E-1,1.223173225E0
4.440008154E0,1.210526347E0,1.403508782E-1,1.052631587E-1,1.223173225E0
4.450697077E0,1.192982435E0,1.403508782E-1,1.052631587E-1,1.205813332E0
4.459997384E0,1.175438643E0,1.403508782E-1,1.228070185E-1,1.190141141E0
4.470055923E0,1.140350819E0,1.403508782E-1,1.578947306E-1,1.159753898E0
4.480119769E0,1.105263114E0,1.403508782E-1,1.929824501E-1,1.130728591E0
4.490028538E0,1.052631617E0,1.403508782E-1,2.280701697E-1,1.086161909E0
4.500178692E0,1.017543912E0,1.403508782E-1,2.631579041E-1,1.060351859E0
4.510019769E0,9.649122953E-1,1.228070185E-1,2.982456088E-1,1.017392621E0
4.519997769E0,9.298245907E-1,1.228070185E-1,3.333333433E-1,9.953725187E-1
4.530300154E0,8.947368264E-1,1.228070185E-1,3.508771956E-1,9.688913039E-1
4.540000077E0,8.771929741E-1,1.052631587E-1,3.333333433E-1,9.442769531E-1
4.550015692E0,8.245614171E-1,1.052631587E-1,3.333333433E-1,8.955964386E-1
4.560417231E0,7.894737124E-1,1.052631587E-1,3.333333433E-1,8.634003665E-1
4.570010846E0,7.719298005E-1,8.771929890E-2,3.157894611E-1,8.386258260E-1
4.580033000E0,7.368420959E-1,8.771929890E-2,3.333333433E-1,8.134753022E-1
4.590002000E0,7.192982435E-1,7.017543912E-2,3.333333433E-1,7.958804390E-1
4.600569231E0,7.017543912E-1,7.017543912E-2,3.508771956E-1,7.877173505E-1
4.610046615E0,6.842105389E-1,5.263157934E-2,3.508771956E-1,7.707327364E-1
4.620204231E0,6.666666865E-1,5.263157934E-2,3.684210479E-1,7.635107220E-1
4.630011154E0,6.315789223E-1,5.263157934E-2,3.684210479E-1,7.330730433E-1
4.640016077E0,6.140350699E-1,3.508771956E-2,3.508771956E-1,7.080854621E-1
4.653253846E0,5.964912176E-1,3.508771956E-2,3.508771956E-1,6.929269277E-1
4.660847692E0,5.964912176E-1,3.508771956E-2,3.333333433E-1,6.842105221E-1
4.670913384E0,5.964912176E-1,3.508771956E-2,3.333333433E-1,6.842105221E-1
4.680012231E0,5.789473653E-1,3.508771956E-2,3.157894611E-1,6.604045606E-1
4.694307769E0,5.614035130E-1,3.508771956E-2,2.982456088E-1,6.366753455E-1
4.710010615E0,5.438596606E-1,1.754385978E-2,2.982456088E-1,6.205171719E-1
4.719997692E0,5.087719560E-1,1.754385978E-2,2.982456088E-1,5.900060452E-1
4.730009384E0,4.912280738E-1,1.754385978E-2,2.807017565E-1,5.660444184E-1
4.740006077E0,4.736842215E-1,0.000000000E0,2.807017565E-1,5.506089518E-1
4.750120769E0,4.561403394E-1,0.000000000E0,2.807017565E-1,5.355907816E-1
4.760127154E0,4.385964870E-1,0.000000000E0,2.807017565E-1,5.207305969E-1
4.769999769E0,4.385964870E-1,0.000000000E0,2.807017565E-1,5.207305969E-1
4.782338384E0,4.385964870E-1,0.000000000E0,2.631579041E-1,5.114870096E-1
4.790015538E0,4.210526347E-1,0.000000000E0,2.631579041E-1,4.965253304E-1
4.800190615E0,4.210526347E-1,-1.754385978E-2,2.456140369E-1,4.877697852E-1
4.810014154E0,3.859649003E-1,-1.754385978E-2,2.280701697E-1,4.486565430E-1
4.820036461E0,3.508771956E-1,-1.754385978E-2,2.105263174E-1,4.095655304E-1
4.830216538E0,3.157894611E-1,-1.754385978E-2,1.929824501E-1,3.705037069E-1
4.840062615E0,2.807017565E-1,-1.754385978E-2,1.754385978E-1,3.314814696E-1
4.850745538E0,2.456140369E-1,-1.754385978E-2,1.578947306E-1,2.925145947E-1
4.860000308E0,2.280701697E-1,-1.754385978E-2,1.578947306E-1,2.779470008E-1
4.870023615E0,1.929824501E-1,-1.754385978E-2,1.403508782E-1,2.392663413E-1
4.880118231E0,1.578947306E-1,-1.754385978E-2,1.403508782E-1,2.119832587E-1
4.890020077E0,1.403508782E-1,-1.754385978E-2,1.403508782E-1,1.992599434E-1
4.900004231E0,1.052631587E-1,0.000000000E0,1.228070185E-1,1.617463952E-1
4.910016384E0,7.017543912E-2,0.000000000E0,1.052631587E-1,1.265105720E-1
4.920212308E0,5.263157934E-2,0.000000000E0,1.052631587E-1,1.176877892E-1
4.930011461E0,3.508771956E-2,0.000000000E0,7.017543912E-2,7.845852611E-2
4.940259077E0,1.754385978E-2,0.000000000E0,5.263157934E-2,5.547855585E-2
4.950623846E0,1.754385978E-2,0.000000000E0,3.508771956E-2,3.922926306E-2
4.960250538E0,1.754385978E-2,0.000000000E0,1.754385978E-2,2.481076444E-2
4.969998923E0,0.000000000E0,0.000000000E0,1.754385978E-2,1.754385978E-2
4.980012615E0,0.000000000E0,0.000000000E0,1.754385978E-2,1.754385978E-2
4.989998615E0,-1.754385978E-2,0.000000000E0,1.754385978E-2,2.481076444E-2
5.000009615E0,-5.263157934E-2,0.000000000E0,0.000000000E0,5.263157934E-2
5.010053308E0,-7.017543912E-2,0.000000000E0,0.000000000E0,7.017543912E-2
5.021158923E0,-8.771929890E-2,0.000000000E0,0.000000000E0,8.771929890E-2
5.029998846E0,-1.228070185E-1,0.000000000E0,0.000000000E0,1.228070185E-1
5.040565769E0,-1.403508782E-1,0.000000000E0,-1.754385978E-2,1.414431194E-1
5.050003615E0,-1.403508782E-1,0.000000000E0,-5.263157934E-2,1.498948037E-1
5.060009692E0,-1.754385978E-1,0.000000000E0,-7.017543912E-2,1.889531525E-1
5.070203308E0,-1.929824501E-1,0.000000000E0,-1.052631587E-1,2.198239264E-1
5.080008846E0,-2.456140369E-1,0.000000000E0,-1.403508782E-1,2.828862389E-1
5.092054615E0,-2.807017565E-1,0.000000000E0,-1.754385978E-1,3.310168843E-1
5.100002538E0,-3.333333433E-1,0.000000000E0,-1.929824501E-1,3.851666442E-1
5.110028231E0,-3.684210479E-1,0.000000000E0,-2.280701697E-1,4.333013626E-1
5.119999385E0,-4.035087824E-1,0.000000000E0,-2.280701697E-1,4.635033331E-1
5.132802077E0,-4.561403394E-1,0.000000000E0,-2.456140369E-1,5.180639578E-1
5.142093461E0,-4.912280738E-1,0.000000000E0,-2.456140369E-1,5.492096828E-1
5.150006923E0,-4.912280738E-1,0.000000000E0,-2.456140369E-1,5.492096828E-1
5.160324077E0,-5.614035130E-1,0.000000000E0,-2.280701697E-1,6.059619680E-1
5.170529692E0,-5.964912176E-1,0.000000000E0,-2.280701697E-1,6.386061188E-1
5.181056692E0,-6.140350699E-1,0.000000000E0,-2.280701697E-1,6.550229534E-1
5.189998231E0,-6.140350699E-1,0.000000000E0,-2.280701697E-1,6.550229534E-1
5.200015154E0,-6.140350699E-1,0.000000000E0,-2.280701697E-1,6.550229534E-1
5.210005846E0,-6.315789223E-1,0.000000000E0,-2.280701697E-1,6.714967888E-1
5.220565769E0,-6.315789223E-1,0.000000000E0,-2.456140369E-1,6.776563954E-1
5.229997461E0,-6.315789223E-1,1.754385978E-2,-2.456140369E-1,6.778834540E-1
5.240263000E0,-5.964912176E-1,1.754385978E-2,-2.807017565E-1,6.594717854E-1
5.250415154E0,-5.964912176E-1,1.754385978E-2,-2.807017565E-1,6.594717854E-1
5.259999538E0,-5.964912176E-1,1.754385978E-2,-2.807017565E-1,6.594717854E-1
5.270894231E0,-6.140350699E-1,1.754385978E-2,-2.982456088E-1,6.828596469E-1
5.280008461E0,-6.140350699E-1,1.754385978E-2,-2.982456088E-1,6.828596469E-1
5.290115846E0,-6.315789223E-1,1.754385978E-2,-3.157894611E-1,7.063446084E-1
5.299999308E0,-6.315789223E-1,0.000000000E0,-3.157894611E-1,7.061267017E-1
5.310875077E0,-6.491228342E-1,0.000000000E0,-3.157894611E-1,7.218610930E-1
5.320016000E0,-6.666666865E-1,0.000000000E0,-3.157894611E-1,7.376770667E-1
5.330009461E0,-6.666666865E-1,0.000000000E0,-2.982456088E-1,7.303389036E-1
5.340097692E0,-6.842105389E-1,-1.754385978E-2,-2.982456088E-1,7.465937930E-1
5.350006000E0,-6.842105389E-1,-1.754385978E-2,-2.807017565E-1,7.397603156E-1
5.360031385E0,-7.017543912E-1,-1.754385978E-2,-2.807017565E-1,7.560161960E-1
5.370667692E0,-7.192982435E-1,-3.508771956E-2,-2.631579041E-1,7.667288919E-1
5.380017923E0,-7.368420959E-1,-3.508771956E-2,-2.807017565E-1,7.892787203E-1
5.390001385E0,-7.719298005E-1,-3.508771956E-2,-2.807017565E-1,8.221315230E-1
5.400802923E0,-7.894737124E-1,-3.508771956E-2,-2.982456088E-1,8.446598924E-1
5.410062308E0,-7.894737124E-1,-3.508771956E-2,-3.157894611E-1,8.510128521E-1
5.420920077E0,-8.070175648E-1,-3.508771956E-2,-3.157894611E-1,8.673127934E-1
5.430206769E0,-8.245614171E-1,-5.263157934E-2,-3.333333433E-1,8.909448532E-1
5.440005923E0,-8.421052694E-1,-5.263157934E-2,-3.333333433E-1,9.072058673E-1
5.450299615E0,-8.596491218E-1,-5.263157934E-2,-3.333333433E-1,9.235138404E-1
5.459999000E0,-8.771929741E-1,-7.017543912E-2,-3.333333433E-1,9.410118085E-1
5.470097923E0,-8.771929741E-1,-7.017543912E-2,-3.508771956E-1,9.473684143E-1
5.480317692E0,-9.122806787E-1,-7.017543912E-2,-3.508771956E-1,9.799466493E-1
5.491769154E0,-9.298245907E-1,-8.771929890E-2,-3.333333433E-1,9.916549615E-1
5.501591154E0,-9.649122953E-1,-8.771929890E-2,-3.333333433E-1,1.024627508E0
5.510010615E0,-9.824561477E-1,-8.771929890E-2,-3.157894611E-1,1.035682259E0
5.519997923E0,-1.000000000E0,-1.052631587E-1,-2.982456088E-1,1.048823520E0
5.530066923E0,-1.017543912E0,-1.052631587E-1,-2.807017565E-1,1.060787171E0
5.543805615E0,-1.052631617E0,-1.228070185E-1,-2.280701697E-1,1.084034541E0
5.550002461E0,-1.052631617E0,-1.228070185E-1,-2.280701697E-1,1.084034541E0
5.560045461E0,-1.087719321E0,-1.228070185E-1,-2.105263174E-1,1.114691085E0
5.570002769E0,-1.105263114E0,-1.228070185E-1,-1.929824501E-1,1.128685227E0
5.580921461E0,-1.122807026E0,-1.228070185E-1,-1.578947306E-1,1.140485829E0
5.590219308E0,-1.157894731E0,-1.228070185E-1,-1.403508782E-1,1.172817181E0
5.600038615E0,-1.175438643E0,-1.403508782E-1,-1.228070185E-1,1.190141141E0
5.610003846E0,-1.192982435E0,-1.403508782E-1,-8.771929890E-2,1.204408625E0
5.620006769E0,-1.192982435E0,-1.403508782E-1,-7.017543912E-2,1.203258099E0
5.631982692E0,-1.210526347E0,-1.403508782E-1,-5.263157934E-2,1.219771491E0
5.640110077E0,-1.228070140E0,-1.578947306E-1,-3.508771956E-2,1.238675972E0
5.651404846E0,-1.228070140E0,-1.578947306E-1,-1.754385978E-2,1.238303194E0
5.661025615E0,-1.245614052E0,-1.578947306E-1,0.000000000E0,1.255581583E0
5.670232385E0,-1.245614052E0,-1.578947306E-1,1.754385978E-2,1.255704145E0
5.679999769E0,-1.263157845E0,-1.403508782E-1,3.508771956E-2,1.271415454E0
5.691190923E0,-1.280701756E0,-1.403508782E-1,5.263157934E-2,1.289443850E0
5.699998308E0,-1.315789461E0,-1.228070185E-1,7.017543912E-2,1.323369964E0
5.714243385E0,-1.315789461E0,-1.228070185E-1,7.017543912E-2,1.323369964E0
5.720035000E0,-1.298245668E0,-1.228070185E-1,7.017543912E-2,1.305928012E0
5.730362538E0,-1.280701756E0,-1.228070185E-1,7.017543912E-2,1.288488706E0
5.741238000E0,-1.263157845E0,-1.228070185E-1,7.017543912E-2,1.271052279E0
5.749999769E0,-1.245614052E0,-1.228070185E-1,7.017543912E-2,1.253618970E0
5.761159461E0,-1.245614052E0,-1.228070185E-1,7.017543912E-2,1.253618970E0
5.770383154E0,-1.245614052E0,-1.228070185E-1,8.771929890E-2,1.254723318E0
5.780032692E0,-1.245614052E0,-1.228070185E-1,1.052631587E-1,1.256071758E0
5.790000308E0,-1.245614052E0,-1.228070185E-1,1.228070185E-1,1.257663506E0
5.800015923E0,-1.228070140E0,-1.228070185E-1,1.228070185E-1,1.240290045E0
5.810104769E0,-1.228070140E0,-1.228070185E-1,1.403508782E-1,1.242149830E0
5.820004769E0,-1.228070140E0,-1.228070185E-1,1.403508782E-1,1.242149830E0
5.831732231E0,-1.228070140E0,-1.228070185E-1,1.403508782E-1,1.242149830E0
5.840013308E0,-1.228070140E0,-1.228070185E-1,1.403508782E-1,1.242149830E0
5.850097154E0,-1.228070140E0,-1.228070185E-1,1.228070185E-1,1.240290045E0
5.860020231E0,-1.228070140E0,-1.228070185E-1,1.228070185E-1,1.240290045E0
5.870018538E0,-1.228070140E0,-1.228070185E-1,1.228070185E-1,1.240290045E0
5.879997231E0,-1.228070140E0,-1.228070185E-1,1.228070185E-1,1.240290045E0
5.891152846E0,-1.228070140E0,-1.228070185E-1,1.403508782E-1,1.242149830E0
5.899998615E0,-1.210526347E0,-1.228070185E-1,1.403508782E-1,1.224807728E0
5.910016769E0,-1.210526347E0,-1.228070185E-1,1.578947306E-1,1.226941868E0
5.920601461E0,-1.228070140E0,-1.228070185E-1,1.754385978E-1,1.246601995E0
5.930072461E0,-1.245614052E0,-1.052631587E-1,1.929824501E-1,1.264862413E0
5.940615846E0,-1.228070140E0,-1.052631587E-1,2.105263174E-1,1.250423101E0
5.950017769E0,-1.210526347E0,-1.052631587E-1,2.105263174E-1,1.233197348E0
5.961035231E0,-1.192982435E0,-1.052631587E-1,2.105263174E-1,1.215980573E0
5.970179461E0,-1.157894731E0,-8.771929890E-2,2.280701697E-1,1.183398025E0
5.980010231E0,-1.122807026E0,-8.771929890E-2,2.105263174E-1,1.145736280E0
5.990008923E0,-1.070175409E0,-8.771929890E-2,2.105263174E-1,1.094208121E0
6.000015000E0,-1.035087705E0,-8.771929890E-2,2.105263174E-1,1.059916300E0
6.010012846E0,-9.824561477E-1,-7.017543912E-2,1.929824501E-1,1.003686654E0
6.020296000E0,-9.298245907E-1,-7.017543912E-2,1.929824501E-1,9.522292727E-1
6.031036000E0,-8.771929741E-1,-7.017543912E-2,1.929824501E-1,9.009075047E-1
6.040392000E0,-8.421052694E-1,-7.017543912E-2,1.929824501E-1,8.667803085E-1
6.050018077E0,-7.894737124E-1,-7.017543912E-2,1.929824501E-1,8.157423374E-1
6.060801231E0,-7.368420959E-1,-7.017543912E-2,1.929824501E-1,7.649203178E-1
6.070033615E0,-7.017543912E-1,-7.017543912E-2,2.105263174E-1,7.360062147E-1
6.083654846E0,-6.666666865E-1,-5.263157934E-2,2.105263174E-1,7.010962019E-1
6.090026308E0,-6.140350699E-1,-5.263157934E-2,2.105263174E-1,6.512530081E-1
6.100031769E0,-5.789473653E-1,-5.263157934E-2,2.105263174E-1,6.182810568E-1
6.110021385E0,-5.438596606E-1,-5.263157934E-2,2.105263174E-1,5.855550733E-1
6.120003461E0,-5.438596606E-1,-5.263157934E-2,2.105263174E-1,5.855550733E-1
6.130008308E0,-5.087719560E-1,-3.508771956E-2,2.280701697E-1,5.586555768E-1
6.140050923E0,-4.912280738E-1,-3.508771956E-2,2.280701697E-1,5.427266079E-1
6.150006461E0,-4.561403394E-1,-1.754385978E-2,2.456140369E-1,5.183609277E-1
6.160026077E0,-4.035087824E-1,-1.754385978E-2,2.456140369E-1,4.727085567E-1
6.170400461E0,-4.035087824E-1,-1.754385978E-2,2.456140369E-1,4.727085567E-1
6.180015846E0,-3.859649003E-1,-1.754385978E-2,2.456140369E-1,4.578241435E-1
6.190205231E0,-3.508771956E-1,-1.754385978E-2,2.456140369E-1,4.286593619E-1
6.200009154E0,-3.157894611E-1,-1.754385978E-2,2.456140369E-1,4.004460337E-1
6.210771769E0,-2.631579041E-1,-1.754385978E-2,2.456140369E-1,3.603971763E-1
6.220014231E0,-2.280701697E-1,-1.754385978E-2,2.456140369E-1,3.356337952E-1
6.230720615E0,-2.105263174E-1,-1.754385978E-2,2.456140369E-1,3.239681658E-1
6.240050923E0,-1.754385978E-1,-1.754385978E-2,2.456140369E-1,3.023454047E-1
6.250026077E0,-1.228070185E-1,-1.754385978E-2,2.456140369E-1,2.751646887E-1
6.260180923E0,-1.052631587E-1,-1.754385978E-2,2.456140369E-1,2.677953971E-1
6.270467923E0,-7.017543912E-2,-1.754385978E-2,2.456140369E-1,2.560442040E-1
6.280018154E0,-5.263157934E-2,-1.754385978E-2,2.280701697E-1,2.347208394E-1
6.292149538E0,-1.754385978E-2,-1.754385978E-2,2.105263174E-1,2.119832643E-1
6.300020692E0,-1.754385978E-2,-1.754385978E-2,2.105263174E-1,2.119832643E-1
6.310034692E0,0.000000000E0,-1.754385978E-2,1.929824501E-1,1.937782575E-1
6.320291077E0,1.754385978E-2,-1.754385978E-2,1.578947306E-1,1.598321619E-1
6.330017846E0,1.754385978E-2,-1.754385978E-2,1.578947306E-1,1.598321619E-1
6.340905077E0,3.508771956E-2,-1.754385978E-2,1.403508782E-1,1.457302443E-1
6.350022923E0,5.263157934E-2,0.000000000E0,1.403508782E-1,1.498948037E-1
6.361417000E0,7.017543912E-2,0.000000000E0,1.228070185E-1,1.414431194E-1
6.370422692E0,8.771929890E-2,0.000000000E0,1.228070185E-1,1.509179883E-1
6.381174538E0,1.052631587E-1,0.000000000E0,1.228070185E-1,1.617463952E-1
6.390015462E0,1.228070185E-1,0.000000000E0,1.228070185E-1,1.736753511E-1
6.400020538E0,1.403508782E-1,0.000000000E0,1.228070185E-1,1.864937876E-1
6.410037846E0,1.578947306E-1,0.000000000E0,1.228070185E-1,2.000307719E-1
6.420024231E0,1.754385978E-1,0.000000000E0,1.052631587E-1,2.045948049E-1
6.430016538E0,1.929824501E-1,0.000000000E0,8.771929890E-2,2.119832575E-1
6.440035154E0,2.105263174E-1,0.000000000E0,7.017543912E-2,2.219142234E-1
6.452341923E0,2.105263174E-1,0.000000000E0,5.263157934E-2,2.170055609E-1
6.460009692E0,2.280701697E-1,0.000000000E0,3.508771956E-2,2.307534406E-1
6.470739385E0,2.280701697E-1,0.000000000E0,1.754385978E-2,2.287439383E-1
6.479997769E0,2.456140369E-1,0.000000000E0,0.000000000E0,2.456140369E-1
6.490015462E0,2.631579041E-1,0.000000000E0,-1.754385978E-2,2.637420511E-1
6.499998846E0,2.807017565E-1,0.000000000E0,-5.263157934E-2,2.855933459E-1
6.510005538E0,2.982456088E-1,0.000000000E0,-7.017543912E-2,3.063903318E-1
6.520101769E0,3.157894611E-1,0.000000000E0,-1.052631587E-1,3.328713210E-1
6.530110000E0,3.333333433E-1,0.000000000E0,-1.403508782E-1,3.616759416E-1
6.540098077E0,3.508771956E-1,0.000000000E0,-1.578947306E-1,3.847668805E-1
6.550000462E0,3.684210479E-1,0.000000000E0,-1.754385978E-1,4.080597630E-1
6.561124154E0,3.859649003E-1,0.000000000E0,-1.929824501E-1,4.315218769E-1
6.570394231E0,4.035087824E-1,0.000000000E0,-2.105263174E-1,4.551270897E-1
6.580137231E0,4.210526347E-1,0.000000000E0,-2.280701697E-1,4.788541777E-1
6.590008923E0,4.561403394E-1,1.754385978E-2,-2.280701697E-1,5.102820774E-1
6.600019077E0,4.736842215E-1,1.754385978E-2,-2.280701697E-1,5.260233179E-1
6.610002615E0,5.087719560E-1,1.754385978E-2,-2.280701697E-1,5.578285512E-1
6.621223462E0,5.438596606E-1,1.754385978E-2,-2.280701697E-1,5.900060337E-1
6.630072000E0,5.964912176E-1,1.754385978E-2,-2.280701697E-1,6.388470568E-1
6.640009615E0,6.315789223E-1,1.754385978E-2,-2.280701697E-1,6.717259295E-1
6.650031231E0,6.666666865E-1,1.754385978E-2,-2.280701697E-1,7.048178916E-1
6.660905769E0,6.842105389E-1,1.754385978E-2,-2.456140369E-1,7.271713028E-1
6.670024154E0,7.192982435E-1,1.754385978E-2,-2.631579041E-1,7.661265122E-1
6.680214846E0,7.543859482E-1,1.754385978E-2,-2.631579041E-1,7.991608276E-1
6.690081846E0,7.894737124E-1,1.754385978E-2,-2.807017565E-1,8.380751791E-1
6.700003231E0,8.245614171E-1,3.508771956E-2,-2.982456088E-1,8.775438005E-1
6.711173231E0,8.421052694E-1,3.508771956E-2,-2.982456088E-1,8.940485871E-1
6.720077923E0,8.771929741E-1,3.508771956E-2,-2.982456088E-1,9.271726404E-1
6.730007462E0,8.947368264E-1,3.508771956E-2,-2.982456088E-1,9.437878892E-1
6.740903769E0,9.298245907E-1,5.263157934E-2,-2.982456088E-1,9.779030094E-1
6.750052692E0,9.473684430E-1,5.263157934E-2,-2.982456088E-1,9.945991620E-1
6.760034615E0,9.824561477E-1,5.263157934E-2,-2.982456088E-1,1.028076169E0
6.770001923E0,1.017543912E0,5.263157934E-2,-2.982456088E-1,1.061657261E0
6.780015231E0,1.035087705E0,5.263157934E-2,-2.982456088E-1,1.078483696E0
6.790009846E0,1.070175409E0,7.017543912E-2,-2.982456088E-1,1.113171344E0
6.800007615E0,1.087719321E0,7.017543912E-2,-2.982456088E-1,1.130047945E0
6.810706154E0,1.105263114E0,7.017543912E-2,-2.982456088E-1,1.146944457E0
6.820158615E0,1.122807026E0,7.017543912E-2,-2.982456088E-1,1.163860238E0
6.830562462E0,1.122807026E0,7.017543912E-2,-2.982456088E-1,1.163860238E0
6.840019077E0,1.122807026E0,7.017543912E-2,-2.807017565E-1,1.159488545E0
6.850714000E0,1.140350819E0,8.771929890E-2,-2.807017565E-1,1.177662151E0
6.860007231E0,1.140350819E0,7.017543912E-2,-2.807017565E-1,1.176485469E0
6.870214538E0,1.140350819E0,7.017543912E-2,-2.807017565E-1,1.176485469E0
6.880093462E0,1.140350819E0,8.771929890E-2,-2.807017565E-1,1.177662151E0
6.890004923E0,1.140350819E0,8.771929890E-2,-2.807017565E-1,1.177662151E0
6.900004846E0,1.157894731E0,7.017543912E-2,-2.807017565E-1,1.193498335E0
6.910012231E0,1.157894731E0,8.771929890E-2,-2.631579041E-1,1.190658207E0
6.922088846E0,1.140350819E0,8.771929890E-2,-2.631579041E-1,1.173604170E0
6.930612077E0,1.140350819E0,8.771929890E-2,-2.456140369E-1,1.169795247E0
6.940017077E0,1.140350819E0,1.052631587E-1,-2.280701697E-1,1.167688453E0
6.950016846E0,1.140350819E0,1.052631587E-1,-2.280701697E-1,1.167688453E0
6.960564308E0,1.122807026E0,1.228070185E-1,-2.105263174E-1,1.148955400E0
6.970009308E0,1.122807026E0,1.228070185E-1,-1.929824501E-1,1.145870589E0
6.980099615E0,1.140350819E0,1.228070185E-1,-1.754385978E-1,1.160284558E0
6.990024308E0,1.157894731E0,1.228070185E-1,-1.578947306E-1,1.175045751E0
7.000016692E0,1.192982435E0,1.228070185E-1,-1.578947306E-1,1.209636061E0
7.010131385E0,1.228070140E0,1.228070185E-1,-1.403508782E-1,1.242149830E0
7.020100077E0,1.263157845E0,1.228070185E-1,-1.403508782E-1,1.276850685E0
7.030378308E0,1.298245668E0,1.228070185E-1,-1.403508782E-1,1.311572243E0
7.040003615E0,1.333333373E0,1.228070185E-1,-1.578947306E-1,1.348254499E0
7.055217846E0,1.350877166E0,1.228070185E-1,-1.578947306E-1,1.365606615E0
7.060013923E0,1.350877166E0,1.228070185E-1,-1.578947306E-1,1.365606615E0
7.070020077E0,1.368421078E0,1.052631587E-1,-1.578947306E-1,1.381516314E0
7.080001462E0,1.350877166E0,1.052631587E-1,-1.403508782E-1,1.362221648E0
7.090014769E0,1.333333373E0,1.052631587E-1,-1.403508782E-1,1.344825857E0
7.100014308E0,1.333333373E0,1.052631587E-1,-1.403508782E-1,1.344825857E0
7.110011077E0,1.298245668E0,1.052631587E-1,-1.228070185E-1,1.308282734E0
7.120014615E0,1.210526347E0,8.771929890E-2,-8.771929890E-2,1.216866216E0
7.131874692E0,1.175438643E0,8.771929890E-2,-8.771929890E-2,1.181966731E0
7.140024385E0,1.175438643E0,8.771929890E-2,-8.771929890E-2,1.181966731E0
7.150000769E0,1.157894731E0,8.771929890E-2,-8.771929890E-2,1.164521171E0
7.160017615E0,1.140350819E0,8.771929890E-2,-8.771929890E-2,1.147078611E0
7.170011462E0,1.122807026E0,8.771929890E-2,-8.771929890E-2,1.129639309E0
7.180091231E0,1.122807026E0,8.771929890E-2,-8.771929890E-2,1.129639309E0
7.191168538E0,1.122807026E0,8.771929890E-2,-7.017543912E-2,1.128412551E0
7.200008846E0,1.122807026E0,8.771929890E-2,-7.017543912E-2,1.128412551E0
7.212890385E0,1.157894731E0,8.771929890E-2,-1.754385978E-2,1.161345198E0
7.220042154E0,1.157894731E0,8.771929890E-2,-1.754385978E-2,1.161345198E0
7.230007538E0,1.157894731E0,8.771929890E-2,0.000000000E0,1.161212678E0
7.240013846E0,1.140350819E0,8.771929890E-2,1.754385978E-2,1.143854209E0
7.250040846E0,1.122807026E0,8.771929890E-2,3.508771956E-2,1.126774796E0
7.260796923E0,1.122807026E0,8.771929890E-2,3.508771956E-2,1.126774796E0
7.270008846E0,1.105263114E0,8.771929890E-2,3.508771956E-2,1.109293638E0
7.279998846E0,1.087719321E0,8.771929890E-2,3.508771956E-2,1.091814611E0
7.290390308E0,1.070175409E0,8.771929890E-2,5.263157934E-2,1.075053564E0
7.304979385E0,1.035087705E0,8.771929890E-2,7.017543912E-2,1.041165608E0
7.310355462E0,1.035087705E0,8.771929890E-2,7.017543912E-2,1.041165608E0
7.321460538E0,1.017543912E0,7.017543912E-2,8.771929890E-2,1.023725979E0
7.329999308E0,1.017543912E0,7.017543912E-2,1.052631587E-1,1.025378241E0
7.340147308E0,1.000000000E0,7.017543912E-2,1.052631587E-1,1.007970696E0
7.350016462E0,9.824561477E-1,7.017543912E-2,1.228070185E-1,9.925856326E-1
7.360644308E0,9.649122953E-1,5.263157934E-2,1.228070185E-1,9.741187734E-1
7.370054308E0,9.473684430E-1,5.263157934E-2,1.052631587E-1,9.546503981E-1
7.380018000E0,9.298245907E-1,5.263157934E-2,1.052631587E-1,9.372428635E-1
7.389997077E0,9.122806787E-1,5.263157934E-2,8.771929890E-2,9.179982546E-1
7.400434077E0,8.771929741E-1,3.508771956E-2,8.771929890E-2,8.822660241E-1
7.413568923E0,8.245614171E-1,1.754385978E-2,8.771929890E-2,8.293997787E-1
7.420013846E0,8.245614171E-1,1.754385978E-2,8.771929890E-2,8.293997787E-1
7.430414769E0,7.894737124E-1,1.754385978E-2,8.771929890E-2,7.945257737E-1
7.439999385E0,7.719298005E-1,0.000000000E0,7.017543912E-2,7.751130299E-1
7.451026154E0,7.368420959E-1,0.000000000E0,7.017543912E-2,7.401762401E-1
7.460005538E0,7.192982435E-1,1.754385978E-2,7.017543912E-2,7.229262358E-1
7.470006538E0,7.192982435E-1,1.754385978E-2,7.017543912E-2,7.229262358E-1
7.480018769E0,6.842105389E-1,1.754385978E-2,7.017543912E-2,6.880235757E-1
7.490005615E0,6.666666865E-1,1.754385978E-2,8.771929890E-2,6.726417571E-1
7.500779923E0,6.666666865E-1,3.508771956E-2,8.771929890E-2,6.733277763E-1
7.510014231E0,6.666666865E-1,3.508771956E-2,8.771929890E-2,6.733277763E-1
7.521995538E0,6.666666865E-1,5.263157934E-2,1.052631587E-1,6.769748050E-1
7.530012231E0,6.666666865E-1,3.508771956E-2,1.052631587E-1,6.758372227E-1
7.540261846E0,6.491228342E-1,3.508771956E-2,1.228070185E-1,6.615687158E-1
7.549999692E0,6.315789223E-1,3.508771956E-2,1.403508782E-1,6.479363025E-1
7.560109846E0,6.315789223E-1,3.508771956E-2,1.403508782E-1,6.479363025E-1
7.570294769E0,6.140350699E-1,3.508771956E-2,1.578947306E-1,6.349810715E-1
7.580009385E0,5.964912176E-1,1.754385978E-2,1.754385978E-1,6.220034255E-1
7.590756385E0,5.614035130E-1,1.754385978E-2,1.754385978E-1,5.884389458E-1
7.600008615E0,5.438596606E-1,1.754385978E-2,1.754385978E-1,5.717253004E-1
7.610933923E0,5.263158083E-1,1.754385978E-2,1.929824501E-1,5.608550108E-1
7.620011923E0,5.087719560E-1,1.754385978E-2,1.929824501E-1,5.444253082E-1
7.632312846E0,4.912280738E-1,1.754385978E-2,1.929824501E-1,5.280672624E-1
7.640385077E0,4.736842215E-1,0.000000000E0,1.929824501E-1,5.114870162E-1
7.650483539E0,4.385964870E-1,0.000000000E0,1.929824501E-1,4.791754423E-1
7.660102692E0,4.035087824E-1,0.000000000E0,1.929824501E-1,4.472824203E-1
7.670475846E0,4.035087824E-1,0.000000000E0,1.929824501E-1,4.472824203E-1
7.679997462E0,3.859649003E-1,0.000000000E0,1.929824501E-1,4.315218769E-1
7.691499769E0,3.859649003E-1,0.000000000E0,1.929824501E-1,4.315218769E-1
7.701558000E0,3.684210479E-1,0.000000000E0,1.929824501E-1,4.159041892E-1
7.709999231E0,3.333333433E-1,0.000000000E0,1.929824501E-1,3.851666442E-1
7.720065154E0,2.982456088E-1,0.000000000E0,1.754385978E-1,3.460189948E-1
7.730007769E0,2.631579041E-1,0.000000000E0,1.754385978E-1,3.162764362E-1
7.741057385E0,2.456140369E-1,0.000000000E0,1.578947306E-1,2.919880153E-1
7.750608308E0,2.105263174E-1,0.000000000E0,1.578947306E-1,2.631578922E-1
7.760039462E0,1.754385978E-1,0.000000000E0,1.578947306E-1,2.360284888E-1
7.770393154E0,1.403508782E-1,0.000000000E0,1.403508782E-1,1.984861155E-1
7.780867462E0,1.228070185E-1,0.000000000E0,1.403508782E-1,1.864937876E-1
7.789997692E0,1.052631587E-1,0.000000000E0,1.403508782E-1,1.754385978E-1
7.800012539E0,7.017543912E-2,0.000000000E0,1.403508782E-1,1.569170522E-1
7.811492923E0,1.754385978E-2,0.000000000E0,1.403508782E-1,1.414431194E-1
7.819999539E0,-1.754385978E-2,0.000000000E0,1.403508782E-1,1.414431194E-1
7.830023692E0,-5.263157934E-2,0.000000000E0,1.403508782E-1,1.498948037E-1
7.840012692E0,-1.052631587E-1,0.000000000E0,1.403508782E-1,1.754385978E-1
7.850035692E0,-1.228070185E-1,0.000000000E0,1.228070185E-1,1.736753511E-1
7.860023846E0,-1.578947306E-1,0.000000000E0,1.228070185E-1,2.000307719E-1
7.870351385E0,-2.105263174E-1,0.000000000E0,1.228070185E-1,2.437270894E-1
7.879998539E0,-2.807017565E-1,0.000000000E0,1.052631587E-1,2.997896073E-1
7.890039846E0,-3.333333433E-1,0.000000000E0,1.052631587E-1,3.495589368E-1
7.900052539E0,-3.859649003E-1,0.000000000E0,8.771929890E-2,3.958075032E-1
7.910028231E0,-4.210526347E-1,0.000000000E0,8.771929890E-2,4.300930092E-1
7.920673385E0,-4.561403394E-1,-1.754385978E-2,7.017543912E-2,4.618402196E-1
7.929999000E0,-5.087719560E-1,-1.754385978E-2,7.017543912E-2,5.138883949E-1
7.941624846E0,-5.438596606E-1,-1.754385978E-2,7.017543912E-2,5.486489859E-1
7.950005769E0,-5.789473653E-1,-1.754385978E-2,7.017543912E-2,5.834487390E-1
7.960069692E0,-6.140350699E-1,-1.754385978E-2,5.263157934E-2,6.165362417E-1
7.970066462E0,-6.666666865E-1,-1.754385978E-2,5.263157934E-2,6.689711063E-1
7.980022154E0,-7.017543912E-1,-1.754385978E-2,3.508771956E-2,7.028500271E-1
7.993426231E0,-7.368420959E-1,0.000000000E0,3.508771956E-2,7.376770447E-1
8.000109923E0,-7.719298005E-1,0.000000000E0,1.754385978E-2,7.721291368E-1
8.011157615E0,-8.245614171E-1,0.000000000E0,1.754385978E-2,8.247480328E-1
8.020065539E0,-8.596491218E-1,0.000000000E0,1.754385978E-2,8.598281221E-1
8.030390769E0,-8.947368264E-1,0.000000000E0,1.754385978E-2,8.949088085E-1
8.039997615E0,-9.298245907E-1,0.000000000E0,3.508771956E-2,9.304863876E-1
8.050184692E0,-9.649122953E-1,0.000000000E0,3.508771956E-2,9.655500431E-1
8.059999308E0,-9.824561477E-1,0.000000000E0,1.754385978E-2,9.826127768E-1
8.070011769E0,-9.824561477E-1,0.000000000E0,1.754385978E-2,9.826127768E-1
8.080003923E0,-9.824561477E-1,0.000000000E0,1.754385978E-2,9.826127768E-1
8.090011846E0,-1.000000000E0,0.000000000E0,0.000000000E0,1.000000000E0
8.100166923E0,-1.017543912E0,-1.754385978E-2,0.000000000E0,1.017695141E0
8.110018539E0,-1.017543912E0,-1.754385978E-2,0.000000000E0,1.017695141E0
8.120030769E0,-1.017543912E0,-1.754385978E-2,-1.754385978E-2,1.017846347E0
8.130018308E0,-1.017543912E0,-1.754385978E-2,-1.754385978E-2,1.017846347E0
8.140196462E0,-1.035087705E0,-1.754385978E-2,-1.754385978E-2,1.035385016E0
8.149999769E0,-1.035087705E0,-1.754385978E-2,-1.754385978E-2,1.035385016E0
8.160759077E0,-1.052631617E0,-1.754385978E-2,-5.263157934E-2,1.054092591E0
8.169999077E0,-1.052631617E0,-1.754385978E-2,-5.263157934E-2,1.054092591E0
8.180009462E0,-1.070175409E0,-1.754385978E-2,-5.263157934E-2,1.071612466E0
8.190433923E0,-1.087719321E0,-1.754385978E-2,-7.017543912E-2,1.090121874E0
8.200430000E0,-1.105263114E0,0.000000000E0,-8.771929890E-2,1.108738574E0
8.215605308E0,-1.122807026E0,-1.754385978E-2,-1.052631587E-1,1.127866897E0
8.220789000E0,-1.122807026E0,-1.754385978E-2,-1.052631587E-1,1.127866897E0
8.230133615E0,-1.122807026E0,-1.754385978E-2,-1.052631587E-1,1.127866897E0
8.240021000E0,-1.122807026E0,-1.754385978E-2,-1.228070185E-1,1.129639309E0
8.250884692E0,-1.140350819E0,-1.754385978E-2,-1.228070185E-1,1.147078611E0
8.260012308E0,-1.157894731E0,-1.754385978E-2,-1.228070185E-1,1.164521171E0
8.271104615E0,-1.210526347E0,-1.754385978E-2,-1.228070185E-1,1.216866216E0
8.279998923E0,-1.210526347E0,-1.754385978E-2,-1.228070185E-1,1.216866216E0
8.290393692E0,-1.228070140E0,-1.754385978E-2,-1.228070185E-1,1.234319902E0
8.300686692E0,-1.263157845E0,-1.754385978E-2,-1.228070185E-1,1.269234845E0
8.310288000E0,-1.280701756E0,-1.754385978E-2,-1.228070185E-1,1.286695900E0
8.320061154E0,-1.298245668E0,-1.754385978E-2,-1.228070185E-1,1.304159180E0
8.330012615E0,-1.315789461E0,-1.754385978E-2,-1.403508782E-1,1.323369964E0
8.340883846E0,-1.350877166E0,-1.754385978E-2,-1.403508782E-1,1.358261857E0
8.350471308E0,-1.368421078E0,-3.508771956E-2,-1.403508782E-1,1.376047151E0
8.360008231E0,-1.403508782E0,-3.508771956E-2,-1.403508782E-1,1.410945222E0
8.369997000E0,-1.438596487E0,-3.508771956E-2,-1.403508782E-1,1.445852472E0
8.380508154E0,-1.456140399E0,-3.508771956E-2,-1.403508782E-1,1.463309393E0
8.394559000E0,-1.508771896E0,-3.508771956E-2,-1.578947306E-1,1.517417058E0
8.400780000E0,-1.508771896E0,-3.508771956E-2,-1.578947306E-1,1.517417058E0
8.411048769E0,-1.526315808E0,-3.508771956E-2,-1.578947306E-1,1.534862157E0
8.419997769E0,-1.526315808E0,-3.508771956E-2,-1.578947306E-1,1.534862157E0
8.431513385E0,-1.526315808E0,-3.508771956E-2,-1.578947306E-1,1.534862157E0
8.440005154E0,-1.526315808E0,-3.508771956E-2,-1.754385978E-1,1.536766019E0
8.450049769E0,-1.508771896E0,-3.508771956E-2,-1.754385978E-1,1.519342781E0
8.460257077E0,-1.508771896E0,-5.263157934E-2,-1.578947306E-1,1.517924064E0
8.470006462E0,-1.491228104E0,-5.263157934E-2,-1.578947306E-1,1.500487283E0
8.479999154E0,-1.456140399E0,-5.263157934E-2,-1.578947306E-1,1.465621264E0
8.490136692E0,-1.421052575E0,-5.263157934E-2,-1.403508782E-1,1.428936273E0
8.502872231E0,-1.350877166E0,-7.017543912E-2,-1.228070185E-1,1.358261857E0
8.510021462E0,-1.350877166E0,-7.017543912E-2,-1.228070185E-1,1.358261857E0
8.520107769E0,-1.298245668E0,-7.017543912E-2,-1.228070185E-1,1.305928012E0
8.529997923E0,-1.263157845E0,-7.017543912E-2,-1.228070185E-1,1.271052279E0
8.540528923E0,-1.228070140E0,-8.771929890E-2,-1.228070185E-1,1.237308574E0
8.550011846E0,-1.192982435E0,-8.771929890E-2,-1.228070185E-1,1.202490470E0
8.560046231E0,-1.157894731E0,-8.771929890E-2,-1.403508782E-1,1.169663734E0
8.570009000E0,-1.122807026E0,-8.771929890E-2,-1.403508782E-1,1.134939938E0
8.580014231E0,-1.087719321E0,-8.771929890E-2,-1.403508782E-1,1.100239231E0
8.590228923E0,-1.052631617E0,-7.017543912E-2,-1.403508782E-1,1.064263258E0
8.600012615E0,-1.035087705E0,-8.771929890E-2,-1.578947306E-1,1.050729260E0
8.610025385E0,-9.824561477E-1,-7.017543912E-2,-1.578947306E-1,9.975346712E-1
8.620025385E0,-9.473684430E-1,-8.771929890E-2,-1.578947306E-1,9.644337137E-1
8.635149231E0,-9.473684430E-1,-8.771929890E-2,-1.578947306E-1,9.644337137E-1
8.640683077E0,-9.298245907E-1,-8.771929890E-2,-1.403508782E-1,9.444399472E-1
8.650000769E0,-8.947368264E-1,-8.771929890E-2,-1.228070185E-1,9.073754613E-1
8.660069846E0,-8.771929741E-1,-7.017543912E-2,-1.052631587E-1,8.862688298E-1
8.671369308E0,-8.421052694E-1,-7.017543912E-2,-1.052631587E-1,8.515551712E-1
8.680021846E0,-8.245614171E-1,-7.017543912E-2,-8.771929890E-2,8.321783452E-1
8.690058077E0,-8.070175648E-1,-7.017543912E-2,-8.771929890E-2,8.147985134E-1
8.700300462E0,-7.894737124E-1,-7.017543912E-2,-7.017543912E-2,7.956870787E-1
8.710012769E0,-7.894737124E-1,-7.017543912E-2,-7.017543912E-2,7.956870787E-1
8.720971000E0,-7.719298005E-1,-7.017543912E-2,-7.017543912E-2,7.782832398E-1
8.730020539E0,-7.719298005E-1,-7.017543912E-2,-7.017543912E-2,7.782832398E-1
8.740036077E0,-7.543859482E-1,-5.263157934E-2,-7.017543912E-2,7.594687842E-1
8.750002077E0,-7.543859482E-1,-5.263157934E-2,-7.017543912E-2,7.594687842E-1
8.760012539E0,-7.368420959E-1,-5.263157934E-2,-5.263157934E-2,7.405919528E-1
8.770012769E0,-7.368420959E-1,-5.263157934E-2,-5.263157934E-2,7.405919528E-1
8.782031231E0,-7.543859482E-1,-5.263157934E-2,-3.508771956E-2,7.570332820E-1
8.790031000E0,-7.543859482E-1,-5.263157934E-2,-3.508771956E-2,7.570332820E-1
8.801517385E0,-7.368420959E-1,-5.263157934E-2,-1.754385978E-2,7.389276990E-1
8.817162769E0,-7.192982435E-1,-5.263157934E-2,0.000000000E0,7.212212187E-1
8.820404769E0,-7.017543912E-1,-5.263157934E-2,0.000000000E0,7.037253077E-1
8.830086539E0,-6.842105389E-1,-5.263157934E-2,0.000000000E0,6.862318447E-1
8.840059000E0,-6.842105389E-1,-5.263157934E-2,1.754385978E-2,6.864560668E-1
8.850918615E0,-6.842105389E-1,-5.263157934E-2,3.508771956E-2,6.871282942E-1
8.860239923E0,-6.666666865E-1,-5.263157934E-2,3.508771956E-2,6.696608859E-1
8.870030385E0,-6.491228342E-1,-5.263157934E-2,3.508771956E-2,6.521975813E-1
8.880450846E0,-6.315789223E-1,-5.263157934E-2,3.508771956E-2,6.347386598E-1
8.890170154E0,-6.140350699E-1,-5.263157934E-2,3.508771956E-2,6.172846170E-1
8.900011923E0,-5.789473653E-1,-5.263157934E-2,3.508771956E-2,5.823927223E-1
8.910019308E0,-5.438596606E-1,-5.263157934E-2,3.508771956E-2,5.475258548E-1
8.920465616E0,-5.263158083E-1,-5.263157934E-2,3.508771956E-2,5.301033496E-1
8.930465616E0,-4.561403394E-1,-3.508771956E-2,5.263157934E-2,4.605054184E-1
8.940194769E0,-4.561403394E-1,-3.508771956E-2,5.263157934E-2,4.605054184E-1
8.950014923E0,-4.210526347E-1,-3.508771956E-2,5.263157934E-2,4.257775856E-1
8.960013154E0,-3.859649003E-1,-3.508771956E-2,5.263157934E-2,3.911139673E-1
8.970470154E0,-3.508771956E-1,-1.754385978E-2,5.263157934E-2,3.552360857E-1
8.980007616E0,-2.982456088E-1,-1.754385978E-2,5.263157934E-2,3.033616873E-1
8.990020539E0,-2.631579041E-1,-1.754385978E-2,5.263157934E-2,2.689422850E-1
9.000009154E0,-2.105263174E-1,-1.754385978E-2,7.017543912E-2,2.226066252E-1
9.010024077E0,-1.929824501E-1,-1.754385978E-2,7.017543912E-2,2.060936810E-1
9.020004231E0,-1.578947306E-1,-1.754385978E-2,7.017543912E-2,1.736753443E-1
9.030019077E0,-1.228070185E-1,0.000000000E0,8.771929890E-2,1.509179883E-1
9.039999154E0,-1.228070185E-1,0.000000000E0,8.771929890E-2,1.509179883E-1
9.050007769E0,-8.771929890E-2,0.000000000E0,8.771929890E-2,1.240538222E-1
9.060005846E0,-5.263157934E-2,0.000000000E0,7.017543912E-2,8.771929890E-2
9.070798000E0,0.000000000E0,0.000000000E0,5.263157934E-2,5.263157934E-2
9.080028000E0,3.508771956E-2,0.000000000E0,3.508771956E-2,4.962152887E-2
9.089997769E0,3.508771956E-2,0.000000000E0,3.508771956E-2,4.962152887E-2
9.100012077E0,7.017543912E-2,0.000000000E0,1.754385978E-2,7.233518695E-2
9.110010231E0,8.771929890E-2,-1.754385978E-2,1.754385978E-2,9.116056950E-2
9.120022462E0,1.052631587E-1,0.000000000E0,0.000000000E0,1.052631587E-1
9.130001616E0,1.228070185E-1,0.000000000E0,0.000000000E0,1.228070185E-1
9.140007616E0,1.228070185E-1,0.000000000E0,0.000000000E0,1.228070185E-1
9.150000231E0,1.403508782E-1,0.000000000E0,0.000000000E0,1.403508782E-1
9.160059846E0,1.403508782E-1,0.000000000E0,0.000000000E0,1.403508782E-1
9.170060308E0,1.578947306E-1,0.000000000E0,0.000000000E0,1.578947306E-1
9.180009692E0,1.754385978E-1,0.000000000E0,0.000000000E0,1.754385978E-1
9.195623308E0,2.280701697E-1,1.754385978E-2,0.000000000E0,2.287439383E-1
9.200009385E0,2.280701697E-1,1.754385978E-2,0.000000000E0,2.287439383E-1
9.210026769E0,2.456140369E-1,1.754385978E-2,0.000000000E0,2.462398062E-1
9.220014769E0,2.807017565E-1,1.754385978E-2,0.000000000E0,2.812494677E-1
9.234750385E0,3.508771956E-1,3.508771956E-2,1.754385978E-2,3.530633675E-1
9.240014077E0,3.508771956E-1,3.508771956E-2,1.754385978E-2,3.530633675E-1
9.250011308E0,3.859649003E-1,3.508771956E-2,1.754385978E-2,3.879533984E-1
9.260840539E0,4.035087824E-1,3.508771956E-2,3.508771956E-2,4.065484394E-1
9.270139385E0,4.385964870E-1,3.508771956E-2,3.508771956E-2,4.413945792E-1
9.280023846E0,4.561403394E-1,3.508771956E-2,3.508771956E-2,4.588314563E-1
9.290011385E0,4.912280738E-1,3.508771956E-2,5.263157934E-2,4.952840112E-1
9.300037923E0,5.263158083E-1,3.508771956E-2,5.263157934E-2,5.301033496E-1
9.310008308E0,5.614035130E-1,3.508771956E-2,5.263157934E-2,5.649558705E-1
9.321151462E0,5.964912176E-1,3.508771956E-2,3.508771956E-2,5.985516426E-1
9.330016692E0,6.666666865E-1,3.508771956E-2,3.508771956E-2,6.685108578E-1
9.341577923E0,7.543859482E-1,1.754385978E-2,5.263157934E-2,7.564231811E-1
9.350027077E0,7.543859482E-1,1.754385978E-2,5.263157934E-2,7.564231811E-1
9.360028154E0,7.894737124E-1,1.754385978E-2,5.263157934E-2,7.914206295E-1
9.370009846E0,8.245614171E-1,1.754385978E-2,7.017543912E-2,8.277281618E-1
9.379996846E0,8.245614171E-1,3.508771956E-2,8.771929890E-2,8.299562362E-1
9.390001769E0,8.596491218E-1,3.508771956E-2,8.771929890E-2,8.648250898E-1
9.400011923E0,8.947368264E-1,3.508771956E-2,7.017543912E-2,8.981702115E-1
9.410014616E0,9.122806787E-1,3.508771956E-2,7.017543912E-2,9.156482824E-1
9.420018462E0,9.298245907E-1,3.508771956E-2,7.017543912E-2,9.331288816E-1
9.430010539E0,9.473684430E-1,3.508771956E-2,7.017543912E-2,9.506117542E-1
9.440006539E0,9.649122953E-1,3.508771956E-2,5.263157934E-2,9.669834378E-1
9.450349154E0,9.649122953E-1,5.263157934E-2,5.263157934E-2,9.677788508E-1
9.460014769E0,9.824561477E-1,5.263157934E-2,3.508771956E-2,9.844903825E-1
9.470089000E0,1.000000000E0,5.263157934E-2,1.754385978E-2,1.001537753E0
9.480215231E0,1.000000000E0,5.263157934E-2,1.754385978E-2,1.001537753E0
9.490004231E0,1.017543912E0,5.263157934E-2,0.000000000E0,1.018904164E0
9.500027846E0,1.035087705E0,5.263157934E-2,0.000000000E0,1.036424932E0
9.510355231E0,1.070175409E0,5.263157934E-2,0.000000000E0,1.071468847E0
9.521420000E0,1.087719321E0,5.263157934E-2,0.000000000E0,1.088991921E0
9.530007769E0,1.105263114E0,5.263157934E-2,1.754385978E-2,1.106654608E0
9.540014231E0,1.140350819E0,5.263157934E-2,1.754385978E-2,1.141699549E0
9.550001154E0,1.175438643E0,5.263157934E-2,1.754385978E-2,1.176747157E0
9.560010308E0,1.210526347E0,5.263157934E-2,3.508771956E-2,1.212177903E0
9.571053539E0,1.263157845E0,3.508771956E-2,3.508771956E-2,1.264132128E0
9.581817539E0,1.298245668E0,3.508771956E-2,1.754385978E-2,1.298838231E0
9.592120077E0,1.315789461E0,3.508771956E-2,1.754385978E-2,1.316374127E0
9.599997692E0,1.315789461E0,3.508771956E-2,1.754385978E-2,1.316374127E0
9.610773769E0,1.333333373E0,3.508771956E-2,0.000000000E0,1.333794974E0
9.620111308E0,1.368421078E0,3.508771956E-2,0.000000000E0,1.368870846E0
9.630020846E0,1.385964870E0,3.508771956E-2,0.000000000E0,1.386408948E0
9.640001539E0,1.403508782E0,3.508771956E-2,1.754385978E-2,1.404056921E0
9.650009692E0,1.421052575E0,3.508771956E-2,1.754385978E-2,1.421593949E0
9.660002385E0,1.421052575E0,3.508771956E-2,3.508771956E-2,1.421918675E0
9.670119231E0,1.421052575E0,3.508771956E-2,3.508771956E-2,1.421918675E0
9.680017000E0,1.421052575E0,3.508771956E-2,3.508771956E-2,1.421918675E0
9.690010923E0,1.368421078E0,3.508771956E-2,1.754385978E-2,1.368983265E0
9.700032308E0,1.333333373E0,3.508771956E-2,1.754385978E-2,1.333910349E0
9.710020462E0,1.315789461E0,3.508771956E-2,0.000000000E0,1.316257214E0
9.720059231E0,1.298245668E0,3.508771956E-2,0.000000000E0,1.298719740E0
9.729999539E0,1.298245668E0,3.508771956E-2,0.000000000E0,1.298719740E0
9.740031154E0,1.263157845E0,3.508771956E-2,0.000000000E0,1.263645080E0
9.750003769E0,1.245614052E0,3.508771956E-2,0.000000000E0,1.246108147E0
9.760018308E0,1.210526347E0,3.508771956E-2,0.000000000E0,1.211034758E0
9.771584616E0,1.192982435E0,3.508771956E-2,0.000000000E0,1.193498320E0
9.780273692E0,1.175438643E0,3.508771956E-2,1.754385978E-2,1.176093082E0
9.791922462E0,1.140350819E0,3.508771956E-2,1.754385978E-2,1.141025383E0
9.800010846E0,1.105263114E0,3.508771956E-2,3.508771956E-2,1.106376449E0
9.810034769E0,1.087719321E0,3.508771956E-2,1.754385978E-2,1.088426505E0
9.820130692E0,1.070175409E0,3.508771956E-2,1.754385978E-2,1.070894179E0
9.831100077E0,1.070175409E0,3.508771956E-2,1.754385978E-2,1.070894179E0
9.839998462E0,1.070175409E0,3.508771956E-2,1.754385978E-2,1.070894179E0
9.850010077E0,1.070175409E0,3.508771956E-2,1.754385978E-2,1.070894179E0
9.860248616E0,1.070175409E0,3.508771956E-2,0.000000000E0,1.070750463E0
9.870151462E0,1.070175409E0,3.508771956E-2,0.000000000E0,1.070750463E0
9.884071616E0,1.070175409E0,5.263157934E-2,0.000000000E0,1.071468847E0
9.890014769E0,1.052631617E0,5.263157934E-2,0.000000000E0,1.053946585E0
9.900813000E0,1.052631617E0,3.508771956E-2,-1.754385978E-2,1.053362357E0
9.910010000E0,1.052631617E0,3.508771956E-2,-3.508771956E-2,1.053800558E0
9.920021000E0,1.070175409E0,5.263157934E-2,-3.508771956E-2,1.072043207E0
9.929997616E0,1.070175409E0,3.508771956E-2,-3.508771956E-2,1.071325209E0
9.940454923E0,1.087719321E0,3.508771956E-2,-3.508771956E-2,1.088850595E0
9.950106692E0,1.087719321E0,3.508771956E-2,-1.754385978E-2,1.088426505E0
9.960370539E0,1.087719321E0,3.508771956E-2,-1.754385978E-2,1.088426505E0
9.970007692E0,1.087719321E0,3.508771956E-2,0.000000000E0,1.088285105E0
9.980006539E0,1.105263114E0,3.508771956E-2,0.000000000E0,1.105819922E0
9.990642923E0,1.105263114E0,3.508771956E-2,0.000000000E0,1.105819922E0
1.000000238E1,1.122807026E0,3.508771956E-2,0.000000000E0,1.123355138E0
1.001001785E1,1.122807026E0,3.508771956E-2,0.000000000E0,1.123355138E0
1.002004946E1,1.122807026E0,3.508771956E-2,0.000000000E0,1.123355138E0
1.003004215E1,1.122807026E0,3.508771956E-2,0.000000000E0,1.123355138E0
1.003999800E1,1.122807026E0,3.508771956E-2,0.000000000E0,1.123355138E0
1.005000769E1,1.122807026E0,3.508771956E-2,-1.754385978E-2,1.123492124E0
1.006301277E1,1.105263114E0,3.508771956E-2,-1.754385978E-2,1.105959080E0
1.007120715E1,1.105263114E0,3.508771956E-2,-1.754385978E-2,1.105959080E0
1.008015938E1,1.087719321E0,3.508771956E-2,-1.754385978E-2,1.088426505E0
1.008999839E1,1.087719321E0,3.508771956E-2,-1.754385978E-2,1.088426505E0
1.010200631E1,1.105263114E0,5.263157934E-2,0.000000000E0,1.106515537E0
1.011000915E1,1.105263114E0,5.263157934E-2,0.000000000E0,1.106515537E0
1.012020469E1,1.122807026E0,5.263157934E-2,0.000000000E0,1.124039902E0
1.013023669E1,1.122807026E0,5.263157934E-2,1.754385978E-2,1.124176804E0
1.014001469E1,1.105263114E0,5.263157934E-2,1.754385978E-2,1.106654608E0
1.014999723E1,1.070175409E0,3.508771956E-2,1.754385978E-2,1.070894179E0
1.016006231E1,1.035087705E0,3.508771956E-2,1.754385978E-2,1.035830822E0
1.017250792E1,9.473684430E-1,1.754385978E-2,1.754385978E-2,9.476932736E-1
1.018021546E1,9.473684430E-1,1.754385978E-2,1.754385978E-2,9.476932736E-1
1.019093462E1,8.771929741E-1,1.754385978E-2,1.754385978E-2,8.775437811E-1
1.020004523E1,8.421052694E-1,0.000000000E0,0.000000000E0,8.421052694E-1
1.021098531E1,7.894737124E-1,0.000000000E0,0.000000000E0,7.894737124E-1
1.022001608E1,7.368420959E-1,0.000000000E0,-1.754385978E-2,7.370509217E-1
1.023060923E1,6.842105389E-1,0.000000000E0,-3.508771956E-2,6.851096332E-1
1.023999954E1,6.140350699E-1,-1.754385978E-2,-3.508771956E-2,6.152869267E-1
1.025001346E1,5.438596606E-1,-1.754385978E-2,-5.263157934E-2,5.466819922E-1
1.026004115E1,4.210526347E-1,-3.508771956E-2,-7.017543912E-2,4.283002002E-1
1.027001638E1,4.210526347E-1,-3.508771956E-2,-7.017543912E-2,4.283002002E-1
1.028015115E1,3.508771956E-1,-3.508771956E-2,-8.771929890E-2,3.633739532E-1
1.029001192E1,2.631579041E-1,-3.508771956E-2,-8.771929890E-2,2.796031223E-1
1.030068446E1,1.929824501E-1,-5.263157934E-2,-1.052631587E-1,2.260368151E-1
1.031094038E1,1.228070185E-1,-5.263157934E-2,-1.052631587E-1,1.700940314E-1
1.032001346E1,8.771929890E-2,-5.263157934E-2,-1.228070185E-1,1.598321692E-1
1.032999977E1,5.263157934E-2,-5.263157934E-2,-1.228070185E-1,1.436026813E-1
1.034043731E1,3.508771956E-2,-3.508771956E-2,-1.228070185E-1,1.324532367E-1
1.034999839E1,1.754385978E-2,-3.508771956E-2,-1.228070185E-1,1.289205137E-1
1.036011969E1,1.754385978E-2,-3.508771956E-2,-1.052631587E-1,1.123355138E-1
1.037116546E1,0.000000000E0,-1.754385978E-2,-1.052631587E-1,1.067151329E-1
1.038039992E1,-3.508771956E-2,-1.754385978E-2,-1.228070185E-1,1.289205137E-1
1.039024592E1,-5.263157934E-2,0.000000000E0,-1.403508782E-1,1.498948037E-1
1.040001000E1,-8.771929890E-2,0.000000000E0,-1.578947306E-1,1.806250850E-1
1.041111069E1,-1.052631587E-1,0.000000000E0,-1.754385978E-1,2.045948049E-1
1.042056769E1,-1.403508782E-1,0.000000000E0,-1.754385978E-1,2.246710275E-1
1.043014692E1,-1.578947306E-1,0.000000000E0,-1.929824501E-1,2.493450862E-1
1.043999723E1,-1.754385978E-1,0.000000000E0,-1.929824501E-1,2.608082201E-1
1.045011685E1,-1.929824501E-1,0.000000000E0,-1.929824501E-1,2.729183983E-1
1.046222762E1,-1.929824501E-1,0.000000000E0,-1.929824501E-1,2.729183983E-1
1.047007431E1,-2.105263174E-1,0.000000000E0,-1.929824501E-1,2.855933409E-1
1.048044015E1,-2.105263174E-1,0.000000000E0,-1.754385978E-1,2.740438503E-1
1.048999869E1,-2.280701697E-1,-1.754385978E-2,-1.754385978E-1,2.882750265E-1
1.050148785E1,-2.456140369E-1,-3.508771956E-2,-1.754385978E-1,3.038685650E-1
1.051000523E1,-2.456140369E-1,-3.508771956E-2,-1.754385978E-1,3.038685650E-1
1.052002546E1,-2.631579041E-1,-3.508771956E-2,-1.578947306E-1,3.088915287E-1
1.053053238E1,-2.807017565E-1,-3.508771956E-2,-1.578947306E-1,3.239681622E-1
1.054001085E1,-3.157894611E-1,-3.508771956E-2,-1.578947306E-1,3.548025899E-1
1.055232762E1,-3.333333433E-1,-3.508771956E-2,-1.578947306E-1,3.705037270E-1
1.056005854E1,-3.684210479E-1,-3.508771956E-2,-1.754385978E-1,4.095655237E-1
1.057006554E1,-4.035087824E-1,-3.508771956E-2,-1.754385978E-1,4.413945934E-1
1.058000392E1,-4.210526347E-1,-5.263157934E-2,-1.754385978E-1,4.591667518E-1
1.059095500E1,-4.561403394E-1,-5.263157934E-2,-1.578947306E-1,4.855562154E-1
1.060055938E1,-4.736842215E-1,-5.263157934E-2,-1.578947306E-1,5.020732723E-1
1.061091008E1,-4.736842215E-1,-5.263157934E-2,-1.403508782E-1,4.968351778E-1
1.062000008E1,-4.736842215E-1,-5.263157934E-2,-1.403508782E-1,4.968351778E-1
1.063000246E1,-4.736842215E-1,-7.017543912E-2,-1.228070185E-1,4.943509864E-1
1.064003477E1,-4.912280738E-1,-5.263157934E-2,-1.052631587E-1,5.051291283E-1
1.065001985E1,-5.087719560E-1,-5.263157934E-2,-1.052631587E-1,5.222062034E-1
1.066114238E1,-5.263158083E-1,-5.263157934E-2,-8.771929890E-2,5.361651691E-1
1.067000892E1,-5.438596606E-1,-5.263157934E-2,-8.771929890E-2,5.533968639E-1
1.068182546E1,-5.614035130E-1,-3.508771956E-2,-8.771929890E-2,5.692975741E-1
1.069002062E1,-5.964912176E-1,-3.508771956E-2,-8.771929890E-2,6.039268136E-1
1.070026962E1,-6.140350699E-1,-3.508771956E-2,-7.017543912E-2,6.190273075E-1
1.071270277E1,-6.140350699E-1,-3.508771956E-2,-7.017543912E-2,6.190273075E-1
1.072083877E1,-6.491228342E-1,-3.508771956E-2,-5.263157934E-2,6.521975813E-1
1.073000108E1,-6.666666865E-1,-5.263157934E-2,-3.508771956E-2,6.696608859E-1
1.074001931E1,-7.017543912E-1,-5.263157934E-2,0.000000000E0,7.037253077E-1
1.075032192E1,-7.192982435E-1,-7.017543912E-2,0.000000000E0,7.227133286E-1
1.076001169E1,-7.543859482E-1,-8.771929890E-2,1.754385978E-2,7.596713903E-1
1.077002115E1,-7.719298005E-1,-8.771929890E-2,1.754385978E-2,7.770959267E-1
1.077999723E1,-7.894737124E-1,-8.771929890E-2,3.508771956E-2,7.951066382E-1
1.079003231E1,-8.070175648E-1,-8.771929890E-2,5.263157934E-2,8.134753275E-1
1.080108831E1,-8.245614171E-1,-8.771929890E-2,5.263157934E-2,8.308828372E-1
1.081041200E1,-8.421052694E-1,-1.052631587E-1,7.017543912E-2,8.515551712E-1
1.081999846E1,-8.596491218E-1,-1.052631587E-1,8.771929890E-2,8.705007872E-1
1.083003738E1,-8.771929741E-1,-1.052631587E-1,1.228070185E-1,8.919806109E-1
1.083999754E1,-8.947368264E-1,-1.052631587E-1,1.403508782E-1,9.117744733E-1
1.085001131E1,-9.122806787E-1,-1.052631587E-1,1.578947306E-1,9.318085186E-1
1.086033900E1,-9.473684430E-1,-1.052631587E-1,1.578947306E-1,9.661873759E-1
1.087009092E1,-9.649122953E-1,-1.052631587E-1,1.578947306E-1,9.833955543E-1
1.088125554E1,-9.824561477E-1,-1.052631587E-1,1.403508782E-1,9.979973866E-1
1.089000315E1,-1.000000000E0,-8.771929890E-2,1.052631587E-1,1.009343850E0
1.090047862E1,-1.017543912E0,-8.771929890E-2,7.017543912E-2,1.023725979E0
1.091001615E1,-1.035087705E0,-8.771929890E-2,3.508771956E-2,1.039390389E0
1.092006954E1,-1.070175409E0,-7.017543912E-2,0.000000000E0,1.072473775E0
1.093001269E1,-1.105263114E0,-7.017543912E-2,0.000000000E0,1.107488665E0
1.094000985E1,-1.122807026E0,-7.017543912E-2,0.000000000E0,1.124997871E0
1.095001038E1,-1.140350819E0,-7.017543912E-2,0.000000000E0,1.142508023E0
1.096013800E1,-1.140350819E0,-7.017543912E-2,1.754385978E-2,1.142642713E0
1.097202469E1,-1.210526347E0,-5.263157934E-2,3.508771956E-2,1.212177903E0
1.098000377E1,-1.140350819E0,-7.017543912E-2,5.263157934E-2,1.143719662E0
1.099418677E1,-1.140350819E0,-8.771929890E-2,7.017543912E-2,1.145870524E0
1.100001400E1,-1.140350819E0,-8.771929890E-2,7.017543912E-2,1.145870524E0
1.101000977E1,-1.140350819E0,-7.017543912E-2,7.017543912E-2,1.144661161E0
1.102001777E1,-1.140350819E0,-7.017543912E-2,7.017543912E-2,1.144661161E0
1.103199077E1,-1.157894731E0,-7.017543912E-2,5.263157934E-2,1.161212678E0
1.104001785E1,-1.157894731E0,-7.017543912E-2,5.263157934E-2,1.161212678E0
1.105001815E1,-1.157894731E0,-7.017543912E-2,3.508771956E-2,1.160549847E0
1.106036538E1,-1.157894731E0,-7.017543912E-2,3.508771956E-2,1.160549847E0
1.107000815E1,-1.157894731E0,-7.017543912E-2,3.508771956E-2,1.160549847E0
1.108079685E1,-1.140350819E0,-7.017543912E-2,5.263157934E-2,1.143719662E0
1.109165492E1,-1.122807026E0,-7.017543912E-2,7.017543912E-2,1.127184458E0
1.110003162E1,-1.122807026E0,-7.017543912E-2,7.017543912E-2,1.127184458E0
1.111000762E1,-1.122807026E0,-7.017543912E-2,8.771929890E-2,1.128412551E0
1.112021369E1,-1.105263114E0,-5.263157934E-2,1.228070185E-1,1.113309570E0
1.113087162E1,-1.087719321E0,-5.263157934E-2,1.403508782E-1,1.097998986E0
1.114000815E1,-1.087719321E0,-5.263157934E-2,1.403508782E-1,1.097998986E0
1.115007385E1,-1.087719321E0,-3.508771956E-2,1.578947306E-1,1.099679597E0
1.116001223E1,-1.087719321E0,-3.508771956E-2,1.578947306E-1,1.099679597E0
1.117046738E1,-1.087719321E0,-3.508771956E-2,1.578947306E-1,1.099679597E0
1.118011200E1,-1.070175409E0,-3.508771956E-2,1.403508782E-1,1.079909683E0
1.119002738E1,-1.052631617E0,-3.508771956E-2,1.403508782E-1,1.062526629E0
1.120006846E1,-1.052631617E0,-3.508771956E-2,1.403508782E-1,1.062526629E0
1.121038492E1,-1.035087705E0,-3.508771956E-2,1.228070185E-1,1.042937806E0
1.122000969E1,-1.035087705E0,-3.508771956E-2,1.052631587E-1,1.041017789E0
1.123014585E1,-1.035087705E0,-5.263157934E-2,1.052631587E-1,1.041756676E0
1.124009462E1,-1.052631617E0,-5.263157934E-2,8.771929890E-2,1.057590695E0
1.125001600E1,-1.052631617E0,-7.017543912E-2,7.017543912E-2,1.057299629E0
1.126115862E1,-1.070175409E0,-7.017543912E-2,7.017543912E-2,1.074767227E0
1.127007592E1,-1.070175409E0,-7.017543912E-2,7.017543912E-2,1.074767227E0
1.128001985E1,-1.052631617E0,-7.017543912E-2,7.017543912E-2,1.057299629E0
1.129000562E1,-1.052631617E0,-7.017543912E-2,7.017543912E-2,1.057299629E0
1.130030054E1,-1.035087705E0,-7.017543912E-2,7.017543912E-2,1.039834478E0
1.131000654E1,-1.017543912E0,-7.017543912E-2,8.771929890E-2,1.023725979E0
1.132038738E1,-1.000000000E0,-5.263157934E-2,1.052631587E-1,1.006901393E0
1.133000462E1,-9.824561477E-1,-5.263157934E-2,1.052631587E-1,9.894799128E-1
1.134002308E1,-9.649122953E-1,-5.263157934E-2,1.228070185E-1,9.741187734E-1
1.135281708E1,-9.473684430E-1,-3.508771956E-2,1.403508782E-1,9.583509190E-1
1.136000985E1,-9.473684430E-1,-3.508771956E-2,1.403508782E-1,9.583509190E-1
1.137002369E1,-9.298245907E-1,-3.508771956E-2,1.403508782E-1,9.410118419E-1
1.138090600E1,-9.298245907E-1,-3.508771956E-2,1.578947306E-1,9.437879335E-1
1.139006092E1,-9.122806787E-1,-3.508771956E-2,1.754385978E-1,9.296590162E-1
1.140000131E1,-9.122806787E-1,-3.508771956E-2,1.754385978E-1,9.296590162E-1
1.141001946E1,-9.122806787E-1,-3.508771956E-2,1.929824501E-1,9.331288287E-1
1.142000300E1,-9.122806787E-1,-1.754385978E-2,1.929824501E-1,9.326339313E-1
1.143017762E1,-9.122806787E-1,-1.754385978E-2,2.105263174E-1,9.364214618E-1
1.144193115E1,-9.122806787E-1,-1.754385978E-2,1.929824501E-1,9.326339313E-1
1.145001477E1,-9.122806787E-1,-1.754385978E-2,1.929824501E-1,9.326339313E-1
1.146076238E1,-9.298245907E-1,-1.754385978E-2,1.754385978E-1,9.463932893E-1
1.147170392E1,-9.122806787E-1,-1.754385978E-2,1.578947306E-1,9.260100268E-1
1.148002923E1,-9.122806787E-1,-1.754385978E-2,1.578947306E-1,9.260100268E-1
1.149001808E1,-8.947368264E-1,-1.754385978E-2,1.403508782E-1,9.058477491E-1
1.150036615E1,-8.771929741E-1,-1.754385978E-2,1.403508782E-1,8.885233085E-1
1.151006585E1,-8.596491218E-1,-1.754385978E-2,1.578947306E-1,8.742054367E-1
1.152070862E1,-8.245614171E-1,-1.754385978E-2,1.578947306E-1,8.397261837E-1
1.153042346E1,-8.070175648E-1,-3.508771956E-2,1.578947306E-1,8.230669741E-1
1.154001992E1,-8.070175648E-1,-3.508771956E-2,1.403508782E-1,8.198822275E-1
1.155001969E1,-7.894737124E-1,-3.508771956E-2,1.228070185E-1,7.997383663E-1
1.156010131E1,-7.894737124E-1,-1.754385978E-2,1.052631587E-1,7.966535396E-1
1.157003923E1,-7.719298005E-1,-1.754385978E-2,7.017543912E-2,7.753115478E-1
1.158000523E1,-7.368420959E-1,-1.754385978E-2,7.017543912E-2,7.403841256E-1
1.159035777E1,-7.192982435E-1,-1.754385978E-2,5.263157934E-2,7.214345662E-1
1.160001923E1,-6.842105389E-1,0.000000000E0,5.263157934E-2,6.862318447E-1
1.161062092E1,-6.491228342E-1,0.000000000E0,5.263157934E-2,6.512530515E-1
1.162001715E1,-6.140350699E-1,0.000000000E0,5.263157934E-2,6.162865813E-1
1.163005631E1,-5.789473653E-1,0.000000000E0,5.263157934E-2,5.813347873E-1
1.164018939E1,-5.438596606E-1,0.000000000E0,5.263157934E-2,5.464004151E-1
1.165014123E1,-5.087719560E-1,0.000000000E0,5.263157934E-2,5.114870344E-1
1.166122631E1,-4.736842215E-1,0.000000000E0,5.263157934E-2,4.765992288E-1
1.167000638E1,-4.385964870E-1,0.000000000E0,5.263157934E-2,4.417430946E-1
1.168002577E1,-4.035087824E-1,0.000000000E0,5.263157934E-2,4.069268001E-1
1.169014962E1,-3.684210479E-1,0.000000000E0,7.017543912E-2,3.750448784E-1
1.170032462E1,-3.333333433E-1,0.000000000E0,5.263157934E-2,3.374628881E-1
1.171000423E1,-3.157894611E-1,0.000000000E0,5.263157934E-2,3.201453840E-1
1.172001438E1,-2.807017565E-1,0.000000000E0,5.263157934E-2,2.855933459E-1
1.173017531E1,-2.456140369E-1,0.000000000E0,3.508771956E-2,2.481076444E-1
1.174000792E1,-2.105263174E-1,0.000000000E0,3.508771956E-2,2.134302658E-1
1.175240208E1,-1.754385978E-1,0.000000000E0,1.754385978E-2,1.763136087E-1
1.176001100E1,-1.228070185E-1,0.000000000E0,1.754385978E-2,1.240538222E-1
1.177001377E1,-7.017543912E-2,0.000000000E0,1.754385978E-2,7.233518695E-2
1.178000039E1,-3.508771956E-2,0.000000000E0,1.754385978E-2,3.922926306E-2
1.179002062E1,0.000000000E0,0.000000000E0,1.754385978E-2,1.754385978E-2
1.180000069E1,3.508771956E-2,0.000000000E0,0.000000000E0,3.508771956E-2
1.181001400E1,7.017543912E-2,0.000000000E0,0.000000000E0,7.017543912E-2
1.182000185E1,8.771929890E-2,0.000000000E0,-1.754385978E-2,8.945648336E-2
1.183079654E1,1.403508782E-1,0.000000000E0,-3.508771956E-2,1.446703739E-1
1.184043515E1,1.754385978E-1,0.000000000E0,-5.263157934E-2,1.831632735E-1
1.185002777E1,2.105263174E-1,0.000000000E0,-7.017543912E-2,2.219142234E-1
1.186002754E1,2.631579041E-1,0.000000000E0,-8.771929890E-2,2.773927863E-1
1.187001846E1,2.982456088E-1,0.000000000E0,-8.771929890E-2,3.108779802E-1
1.188115577E1,3.333333433E-1,0.000000000E0,-1.052631587E-1,3.495589368E-1
1.189000746E1,3.684210479E-1,0.000000000E0,-1.052631587E-1,3.831636741E-1
1.190079092E1,3.859649003E-1,0.000000000E0,-1.052631587E-1,4.000615413E-1
1.191006285E1,4.035087824E-1,0.000000000E0,-8.771929890E-2,4.129334242E-1
1.192000831E1,4.385964870E-1,0.000000000E0,-8.771929890E-2,4.472824095E-1
1.193314285E1,4.561403394E-1,0.000000000E0,-7.017543912E-2,4.615068813E-1
1.194027277E1,4.736842215E-1,0.000000000E0,-7.017543912E-2,4.788541886E-1
1.195004523E1,4.912280738E-1,0.000000000E0,-5.263157934E-2,4.940395770E-1
1.196028585E1,5.087719560E-1,0.000000000E0,-5.263157934E-2,5.114870344E-1
1.197051031E1,5.263158083E-1,0.000000000E0,-3.508771956E-2,5.274841022E-1
1.198011285E1,5.438596606E-1,0.000000000E0,-3.508771956E-2,5.449903472E-1
1.199033992E1,5.614035130E-1,0.000000000E0,-3.508771956E-2,5.624989355E-1
1.200052200E1,5.789473653E-1,0.000000000E0,-1.754385978E-2,5.792131203E-1
1.201026692E1,5.789473653E-1,0.000000000E0,-1.754385978E-2,5.792131203E-1
1.202138069E1,5.964912176E-1,0.000000000E0,-1.754385978E-2,5.967491598E-1
1.203027477E1,5.964912176E-1,0.000000000E0,-1.754385978E-2,5.967491598E-1
1.204001538E1,5.964912176E-1,0.000000000E0,-1.754385978E-2,5.967491598E-1
1.205000723E1,6.140350699E-1,0.000000000E0,-1.754385978E-2,6.142856454E-1
1.206120662E1,6.140350699E-1,0.000000000E0,-3.508771956E-2,6.150367592E-1
1.207001638E1,6.140350699E-1,0.000000000E0,-3.508771956E-2,6.150367592E-1
1.208001900E1,6.315789223E-1,0.000000000E0,-3.508771956E-2,6.325528303E-1
1.209000292E1,6.315789223E-1,0.000000000E0,-3.508771956E-2,6.325528303E-1
1.210002669E1,6.491228342E-1,0.000000000E0,-3.508771956E-2,6.500704592E-1
1.211002015E1,6.666666865E-1,0.000000000E0,-3.508771956E-2,6.675894090E-1
1.212283600E1,6.842105389E-1,0.000000000E0,-5.263157934E-2,6.862318447E-1
1.213015123E1,6.842105389E-1,0.000000000E0,-5.263157934E-2,6.862318447E-1
1.214001077E1,7.017543912E-1,1.754385978E-2,-5.263157934E-2,7.039439578E-1
1.215274923E1,7.368420959E-1,1.754385978E-2,-8.771929890E-2,7.422524750E-1
1.216003069E1,7.368420959E-1,1.754385978E-2,-8.771929890E-2,7.422524750E-1
1.217210315E1,7.894737124E-1,1.754385978E-2,-1.403508782E-1,8.020442000E-1
1.218001208E1,7.894737124E-1,1.754385978E-2,-1.403508782E-1,8.020442000E-1
1.219002262E1,8.070175648E-1,1.754385978E-2,-1.578947306E-1,8.225058558E-1
1.220013600E1,8.421052694E-1,3.508771956E-2,-1.754385978E-1,8.609013500E-1
1.221056239E1,8.596491218E-1,3.508771956E-2,-1.929824501E-1,8.817425853E-1
1.222146423E1,8.771929741E-1,1.754385978E-2,-2.105263174E-1,9.022730358E-1
1.223007131E1,8.947368264E-1,1.754385978E-2,-2.105263174E-1,9.193384066E-1
1.224341231E1,9.298245907E-1,1.754385978E-2,-2.280701697E-1,9.575476796E-1
1.225012346E1,9.298245907E-1,1.754385978E-2,-2.280701697E-1,9.575476796E-1
1.226001862E1,9.298245907E-1,1.754385978E-2,-2.456140369E-1,9.618772331E-1
1.227056869E1,9.473684430E-1,1.754385978E-2,-2.456140369E-1,9.788467750E-1
1.228683723E1,9.473684430E-1,3.508771956E-2,-2.631579041E-1,9.838649284E-1
1.229014062E1,9.473684430E-1,3.508771956E-2,-2.631579041E-1,9.838649284E-1
1.230000554E1,9.649122953E-1,3.508771956E-2,-2.807017565E-1,1.005524919E0
1.231075254E1,9.649122953E-1,3.508771956E-2,-2.982456088E-1,1.010562877E0
1.232001046E1,9.824561477E-1,3.508771956E-2,-3.157894611E-1,1.032557124E0
1.233095877E1,9.824561477E-1,3.508771956E-2,-3.333333433E-1,1.038057006E0
1.234021115E1,9.824561477E-1,5.263157934E-2,-3.333333433E-1,1.038797999E0
1.235001292E1,1.000000000E0,5.263157934E-2,-3.508771956E-1,1.061077231E0
1.236000885E1,1.017543912E0,5.263157934E-2,-3.508771956E-1,1.077627256E0
1.237005615E1,1.017543912E0,7.017543912E-2,-3.508771956E-1,1.078626447E0
1.238000092E1,1.035087705E0,7.017543912E-2,-3.508771956E-1,1.095192200E0
1.239001531E1,1.052631617E0,7.017543912E-2,-3.333333433E-1,1.106376532E0
1.239999854E1,1.070175409E0,7.017543912E-2,-3.157894611E-1,1.117999545E0
1.241000946E1,1.070175409E0,7.017543912E-2,-3.157894611E-1,1.117999545E0
1.242007123E1,1.087719321E0,7.017543912E-2,-2.982456088E-1,1.130047945E0
1.243015177E1,1.087719321E0,7.017543912E-2,-2.807017565E-1,1.125544930E0
1.244037054E1,1.105263114E0,7.017543912E-2,-2.631579041E-1,1.138324745E0
1.245001531E1,1.122807026E0,7.017543912E-2,-2.456140369E-1,1.151497488E0
1.246146285E1,1.122807026E0,7.017543912E-2,-2.105263174E-1,1.144526776E0
1.247000908E1,1.140350819E0,7.017543912E-2,-1.929824501E-1,1.158691852E0
1.248000669E1,1.157894731E0,7.017543912E-2,-1.578947306E-1,1.170715826E0
1.249000077E1,1.157894731E0,7.017543912E-2,-1.403508782E-1,1.168478998E0
1.250212477E1,1.157894731E0,8.771929890E-2,-1.052631587E-1,1.165973934E0
1.251000262E1,1.157894731E0,8.771929890E-2,-7.017543912E-2,1.163331197E0
1.252000792E1,1.140350819E0,8.771929890E-2,-5.263157934E-2,1.144930019E0
1.253128146E1,1.140350819E0,8.771929890E-2,-3.508771956E-2,1.144257756E0
1.254003431E1,1.122807026E0,8.771929890E-2,-1.754385978E-2,1.126364985E0
1.255001646E1,1.105263114E0,8.771929890E-2,0.000000000E0,1.108738574E0
1.256000777E1,1.105263114E0,8.771929890E-2,0.000000000E0,1.108738574E0
1.257083208E1,1.087719321E0,8.771929890E-2,0.000000000E0,1.091250657E0
1.258055746E1,1.070175409E0,8.771929890E-2,0.000000000E0,1.073764444E0
1.259043069E1,1.052631617E0,8.771929890E-2,1.754385978E-2,1.056425948E0
1.260001615E1,1.035087705E0,8.771929890E-2,1.754385978E-2,1.038946110E0
1.261049477E1,1.035087705E0,8.771929890E-2,1.754385978E-2,1.038946110E0
1.262076415E1,1.017543912E0,8.771929890E-2,1.754385978E-2,1.021468587E0
1.263001046E1,1.000000000E0,7.017543912E-2,3.508771956E-2,1.003073148E0
1.264100200E1,9.824561477E-1,7.017543912E-2,3.508771956E-2,9.855840007E-1
1.265000339E1,9.649122953E-1,7.017543912E-2,5.263157934E-2,9.688913319E-1
1.266002723E1,9.473684430E-1,7.017543912E-2,5.263157934E-2,9.514208544E-1
1.267000877E1,9.298245907E-1,7.017543912E-2,5.263157934E-2,9.339531278E-1
1.268065631E1,9.122806787E-1,7.017543912E-2,7.017543912E-2,9.176629127E-1
1.269000054E1,8.771929741E-1,7.017543912E-2,7.017543912E-2,8.827891585E-1
1.270023715E1,8.596491218E-1,7.017543912E-2,7.017543912E-2,8.653587678E-1
1.271000138E1,8.421052694E-1,7.017543912E-2,7.017543912E-2,8.479330571E-1
1.272001100E1,8.245614171E-1,7.017543912E-2,7.017543912E-2,8.305123209E-1
1.273100315E1,8.070175648E-1,7.017543912E-2,7.017543912E-2,8.130968788E-1
1.274082300E1,7.719298005E-1,7.017543912E-2,8.771929890E-2,7.800608211E-1
1.275033800E1,7.719298005E-1,7.017543912E-2,8.771929890E-2,7.800608211E-1
1.276001731E1,7.719298005E-1,7.017543912E-2,8.771929890E-2,7.800608211E-1
1.277003392E1,7.543859482E-1,7.017543912E-2,1.052631587E-1,7.649203120E-1
1.278001054E1,7.368420959E-1,7.017543912E-2,1.228070185E-1,7.502948955E-1
1.279005608E1,7.192982435E-1,5.263157934E-2,1.228070185E-1,7.316020845E-1
1.279999939E1,7.017543912E-1,5.263157934E-2,1.228070185E-1,7.143604640E-1
1.281000762E1,6.666666865E-1,5.263157934E-2,1.228070185E-1,6.799236118E-1
1.282221662E1,6.491228342E-1,5.263157934E-2,1.228070185E-1,6.627307906E-1
1.283000954E1,6.315789223E-1,5.263157934E-2,1.052631587E-1,6.424502711E-1
1.284006500E1,5.964912176E-1,5.263157934E-2,8.771929890E-2,6.051995797E-1
1.285010223E1,5.789473653E-1,3.508771956E-2,7.017543912E-2,5.842394989E-1
1.286260231E1,5.438596606E-1,3.508771956E-2,7.017543912E-2,5.494898277E-1
1.287000608E1,5.087719560E-1,3.508771956E-2,5.263157934E-2,5.126891206E-1
1.288117708E1,4.736842215E-1,3.508771956E-2,5.263157934E-2,4.778890801E-1
1.289055323E1,4.385964870E-1,3.508771956E-2,5.263157934E-2,4.431344149E-1
1.289999785E1,4.210526347E-1,3.508771956E-2,5.263157934E-2,4.257775856E-1
1.290999777E1,4.035087824E-1,3.508771956E-2,3.508771956E-2,4.065484394E-1
1.291999962E1,3.859649003E-1,3.508771956E-2,5.263157934E-2,3.911139673E-1
1.293039477E1,3.684210479E-1,3.508771956E-2,5.263157934E-2,3.738118508E-1
1.294085785E1,3.684210479E-1,3.508771956E-2,5.263157934E-2,3.738118508E-1
1.295001469E1,3.684210479E-1,3.508771956E-2,5.263157934E-2,3.738118508E-1
1.296011831E1,3.508771956E-1,3.508771956E-2,5.263157934E-2,3.565333611E-1
1.297102546E1,3.508771956E-1,3.508771956E-2,5.263157934E-2,3.565333611E-1
1.298001654E1,3.508771956E-1,3.508771956E-2,5.263157934E-2,3.565333611E-1
1.299000777E1,3.684210479E-1,3.508771956E-2,5.263157934E-2,3.738118508E-1
1.300009092E1,3.684210479E-1,3.508771956E-2,5.263157934E-2,3.738118508E-1
1.301000823E1,3.859649003E-1,1.754385978E-2,5.263157934E-2,3.899317561E-1
1.302111785E1,3.859649003E-1,1.754385978E-2,5.263157934E-2,3.899317561E-1
1.302999792E1,3.859649003E-1,1.754385978E-2,5.263157934E-2,3.899317561E-1
1.304005431E1,3.859649003E-1,1.754385978E-2,5.263157934E-2,3.899317561E-1
1.305038238E1,3.859649003E-1,0.000000000E0,5.263157934E-2,3.895368883E-1
1.306175223E1,3.859649003E-1,0.000000000E0,7.017543912E-2,3.922926159E-1
1.307000415E1,3.859649003E-1,0.000000000E0,7.017543912E-2,3.922926159E-1
1.308007277E1,3.859649003E-1,0.000000000E0,7.017543912E-2,3.922926159E-1
1.309001162E1,3.859649003E-1,0.000000000E0,5.263157934E-2,3.895368883E-1
1.310001369E1,3.684210479E-1,1.754385978E-2,5.263157934E-2,3.725747425E-1
1.311054354E1,3.508771956E-1,1.754385978E-2,5.263157934E-2,3.552360857E-1
1.312001738E1,3.333333433E-1,0.000000000E0,7.017543912E-2,3.406401474E-1
1.313036046E1,3.157894611E-1,0.000000000E0,7.017543912E-2,3.234927758E-1
1.314002162E1,3.157894611E-1,0.000000000E0,8.771929890E-2,3.277463336E-1
1.315070285E1,2.807017565E-1,0.000000000E0,1.052631587E-1,2.997896073E-1
1.316000254E1,2.631579041E-1,0.000000000E0,1.228070185E-1,2.904025590E-1
1.317003177E1,2.456140369E-1,0.000000000E0,1.403508782E-1,2.828862389E-1
1.318004646E1,2.105263174E-1,0.000000000E0,1.578947306E-1,2.631578922E-1
1.319018423E1,1.754385978E-1,0.000000000E0,1.578947306E-1,2.360284888E-1
1.320021646E1,1.403508782E-1,0.000000000E0,1.754385978E-1,2.246710275E-1
1.321002177E1,1.052631587E-1,0.000000000E0,1.754385978E-1,2.045948049E-1
1.322115246E1,7.017543912E-2,0.000000000E0,1.754385978E-1,1.889531525E-1
1.322999762E1,5.263157934E-2,0.000000000E0,1.754385978E-1,1.831632735E-1
1.324038554E1,1.754385978E-2,0.000000000E0,1.578947306E-1,1.588663997E-1
1.325072323E1,0.000000000E0,0.000000000E0,1.578947306E-1,1.578947306E-1
1.326003577E1,-3.508771956E-2,0.000000000E0,1.578947306E-1,1.617463879E-1
1.327001423E1,-7.017543912E-2,0.000000000E0,1.754385978E-1,1.889531525E-1
1.328068538E1,-1.052631587E-1,0.000000000E0,1.754385978E-1,2.045948049E-1
1.329001092E1,-1.403508782E-1,0.000000000E0,1.929824501E-1,2.386222854E-1
1.330350946E1,-2.105263174E-1,0.000000000E0,1.754385978E-1,2.740438503E-1
1.331387739E1,-2.456140369E-1,0.000000000E0,1.578947306E-1,2.919880153E-1
1.332038808E1,-2.456140369E-1,0.000000000E0,1.578947306E-1,2.919880153E-1
1.333009969E1,-2.631579041E-1,0.000000000E0,1.578947306E-1,3.068922098E-1
1.334000654E1,-2.982456088E-1,0.000000000E0,1.403508782E-1,3.296191927E-1
1.335175923E1,-3.333333433E-1,1.754385978E-2,1.403508782E-1,3.621011927E-1
1.335999892E1,-3.508771956E-1,1.754385978E-2,1.403508782E-1,3.783133125E-1
1.337002146E1,-3.859649003E-1,0.000000000E0,1.228070185E-1,4.050314408E-1
1.338000231E1,-4.210526347E-1,0.000000000E0,1.228070185E-1,4.385964945E-1
1.339152069E1,-4.561403394E-1,0.000000000E0,1.228070185E-1,4.723828669E-1
1.340022746E1,-4.912280738E-1,0.000000000E0,1.228070185E-1,5.063463087E-1
1.341006531E1,-5.263158083E-1,0.000000000E0,1.052631587E-1,5.367389148E-1
1.342005223E1,-5.614035130E-1,0.000000000E0,8.771929890E-2,5.682152583E-1
1.343099215E1,-6.140350699E-1,0.000000000E0,7.017543912E-2,6.180320860E-1
1.344001677E1,-6.491228342E-1,0.000000000E0,5.263157934E-2,6.512530515E-1
1.345089200E1,-7.017543912E-1,0.000000000E0,3.508771956E-2,7.026310366E-1
1.346004192E1,-7.543859482E-1,0.000000000E0,3.508771956E-2,7.552015008E-1
1.347000992E1,-7.894737124E-1,-1.754385978E-2,1.754385978E-2,7.898634798E-1
1.348004569E1,-8.421052694E-1,-1.754385978E-2,0.000000000E0,8.422879981E-1
1.349000123E1,-8.771929741E-1,-1.754385978E-2,0.000000000E0,8.773683952E-1
1.350000315E1,-9.298245907E-1,0.000000000E0,-1.754385978E-2,9.299900841E-1
1.351066177E1,-9.473684430E-1,0.000000000E0,-1.754385978E-2,9.475308722E-1
1.352002915E1,-9.473684430E-1,0.000000000E0,-1.754385978E-2,9.475308722E-1
1.353044823E1,-9.649122953E-1,0.000000000E0,-1.754385978E-2,9.650717718E-1
1.354001215E1,-9.824561477E-1,0.000000000E0,0.000000000E0,9.824561477E-1
1.355025685E1,-1.017543912E0,0.000000000E0,0.000000000E0,1.017543912E0
1.356001085E1,-1.035087705E0,0.000000000E0,0.000000000E0,1.035087705E0
1.357028346E1,-1.052631617E0,0.000000000E0,0.000000000E0,1.052631617E0
1.358000277E1,-1.087719321E0,0.000000000E0,-1.754385978E-2,1.087860795E0
1.359093800E1,-1.105263114E0,0.000000000E0,-1.754385978E-2,1.105402342E0
1.360048046E1,-1.122807026E0,0.000000000E0,-3.508771956E-2,1.123355138E0
1.361007392E1,-1.140350819E0,0.000000000E0,-3.508771956E-2,1.140890502E0
1.362138915E1,-1.140350819E0,0.000000000E0,-3.508771956E-2,1.140890502E0
1.363032615E1,-1.140350819E0,-1.754385978E-2,-3.508771956E-2,1.141025383E0
1.364003662E1,-1.157894731E0,-1.754385978E-2,-3.508771956E-2,1.158559080E0
1.365092039E1,-1.157894731E0,-1.754385978E-2,-3.508771956E-2,1.158559080E0
1.366006785E1,-1.157894731E0,-1.754385978E-2,-3.508771956E-2,1.158559080E0
1.367000854E1,-1.140350819E0,-1.754385978E-2,-3.508771956E-2,1.141025383E0
1.368001546E1,-1.140350819E0,-1.754385978E-2,-3.508771956E-2,1.141025383E0
1.368999854E1,-1.140350819E0,-3.508771956E-2,-3.508771956E-2,1.141429930E0
1.369999854E1,-1.175438643E0,-3.508771956E-2,-5.263157934E-2,1.177139428E0
1.371029931E1,-1.175438643E0,-3.508771956E-2,-5.263157934E-2,1.177139428E0
1.372005100E1,-1.175438643E0,-3.508771956E-2,-7.017543912E-2,1.178054219E0
1.373101131E1,-1.192982435E0,-3.508771956E-2,-7.017543912E-2,1.195559631E0
1.374001162E1,-1.210526347E0,-3.508771956E-2,-8.771929890E-2,1.214207503E0
1.375015992E1,-1.210526347E0,-1.754385978E-2,-8.771929890E-2,1.213827212E0
1.376098769E1,-1.210526347E0,-3.508771956E-2,-7.017543912E-2,1.213066271E0
1.377077338E1,-1.210526347E0,-3.508771956E-2,-7.017543912E-2,1.213066271E0
1.378000054E1,-1.228070140E0,-1.754385978E-2,-7.017543912E-2,1.230198621E0
1.379002331E1,-1.228070140E0,-3.508771956E-2,-7.017543912E-2,1.230573853E0
1.380037185E1,-1.228070140E0,-3.508771956E-2,-7.017543912E-2,1.230573853E0
1.381006354E1,-1.228070140E0,-3.508771956E-2,-7.017543912E-2,1.230573853E0
1.382056846E1,-1.228070140E0,-3.508771956E-2,-7.017543912E-2,1.230573853E0
1.383000377E1,-1.245614052E0,-3.508771956E-2,-7.017543912E-2,1.248082572E0
1.384075792E1,-1.245614052E0,-3.508771956E-2,-7.017543912E-2,1.248082572E0
1.385001285E1,-1.245614052E0,-3.508771956E-2,-7.017543912E-2,1.248082572E0
1.386058369E1,-1.263157845E0,-3.508771956E-2,-7.017543912E-2,1.265592146E0
1.387065546E1,-1.263157845E0,-3.508771956E-2,-7.017543912E-2,1.265592146E0
1.388004346E1,-1.280701756E0,-5.263157934E-2,-7.017543912E-2,1.283702327E0
1.388999715E1,-1.280701756E0,-5.263157934E-2,-7.017543912E-2,1.283702327E0
1.390102608E1,-1.280701756E0,-5.263157934E-2,-7.017543912E-2,1.283702327E0
1.391592462E1,-1.263157845E0,-5.263157934E-2,-7.017543912E-2,1.266199990E0
1.392087754E1,-1.263157845E0,-5.263157934E-2,-8.771929890E-2,1.267293375E0
1.393027823E1,-1.245614052E0,-5.263157934E-2,-8.771929890E-2,1.249807635E0
1.393999931E1,-1.245614052E0,-5.263157934E-2,-8.771929890E-2,1.249807635E0
1.395057792E1,-1.210526347E0,-3.508771956E-2,-1.052631587E-1,1.215600888E0
1.396000223E1,-1.192982435E0,-3.508771956E-2,-1.052631587E-1,1.198131283E0
1.397246577E1,-1.175438643E0,-3.508771956E-2,-1.052631587E-1,1.180664001E0
1.398001108E1,-1.157894731E0,-3.508771956E-2,-1.052631587E-1,1.163198903E0
1.399134608E1,-1.140350819E0,-5.263157934E-2,-1.052631587E-1,1.146407609E0
1.400094992E1,-1.122807026E0,-5.263157934E-2,-1.052631587E-1,1.128957941E0
1.401017754E1,-1.122807026E0,-5.263157934E-2,-1.228070185E-1,1.130728643E0
1.402476731E1,-1.105263114E0,-5.263157934E-2,-1.228070185E-1,1.113309570E0
1.403076077E1,-1.105263114E0,-5.263157934E-2,-1.228070185E-1,1.113309570E0
1.404088039E1,-1.105263114E0,-5.263157934E-2,-1.228070185E-1,1.113309570E0
1.405001177E1,-1.087719321E0,-5.263157934E-2,-1.228070185E-1,1.095894597E0
1.406126231E1,-1.087719321E0,-5.263157934E-2,-1.228070185E-1,1.095894597E0
1.406999815E1,-1.070175409E0,-5.263157934E-2,-1.228070185E-1,1.078483683E0
1.408010569E1,-1.052631617E0,-5.263157934E-2,-1.228070185E-1,1.061077267E0
1.409001208E1,-1.035087705E0,-5.263157934E-2,-1.228070185E-1,1.043675334E0
1.410000623E1,-1.035087705E0,-5.263157934E-2,-1.228070185E-1,1.043675334E0
1.411293615E1,-1.017543912E0,-5.263157934E-2,-1.052631587E-1,1.024327110E0
1.412022546E1,-1.017543912E0,-5.263157934E-2,-1.052631587E-1,1.024327110E0
1.413416438E1,-1.000000000E0,-5.263157934E-2,-8.771929890E-2,1.005218762E0
1.414138000E1,-1.000000000E0,-5.263157934E-2,-8.771929890E-2,1.005218762E0
1.415017369E1,-1.000000000E0,-5.263157934E-2,-8.771929890E-2,1.005218762E0
1.415999962E1,-9.824561477E-1,-5.263157934E-2,-1.052631587E-1,9.894799128E-1
1.417064908E1,-9.824561477E-1,-5.263157934E-2,-1.052631587E-1,9.894799128E-1
1.418002908E1,-9.649122953E-1,-5.263157934E-2,-1.052631587E-1,9.720628341E-1
1.419028185E1,-9.473684430E-1,-5.263157934E-2,-1.052631587E-1,9.546503981E-1
1.420006862E1,-9.298245907E-1,-5.263157934E-2,-8.771929890E-2,9.354349405E-1
1.421001008E1,-8.947368264E-1,-5.263157934E-2,-8.771929890E-2,9.005657928E-1
1.422172508E1,-8.771929741E-1,-5.263157934E-2,-7.017543912E-2,8.815680287E-1
1.423087846E1,-8.421052694E-1,-5.263157934E-2,-7.017543912E-2,8.466616563E-1
1.424128638E1,-8.070175648E-1,-5.263157934E-2,-5.263157934E-2,8.104427902E-1
1.425000839E1,-7.894737124E-1,-5.263157934E-2,-5.263157934E-2,7.929747215E-1
1.426054439E1,-7.543859482E-1,-5.263157934E-2,-3.508771956E-2,7.570332820E-1
1.427037969E1,-7.368420959E-1,-3.508771956E-2,-3.508771956E-2,7.385110496E-1
1.428130469E1,-7.017543912E-1,-3.508771956E-2,-1.754385978E-2,7.028500271E-1
1.429652185E1,-6.491228342E-1,-3.508771956E-2,0.000000000E0,6.500704592E-1
1.431006869E1,-6.315789223E-1,-3.508771956E-2,0.000000000E0,6.325528303E-1
1.432006362E1,-6.140350699E-1,-1.754385978E-2,0.000000000E0,6.142856454E-1
1.433268400E1,-5.964912176E-1,-1.754385978E-2,0.000000000E0,5.967491598E-1
1.434015454E1,-5.789473653E-1,-1.754385978E-2,0.000000000E0,5.792131203E-1
1.435014962E1,-5.614035130E-1,-1.754385978E-2,0.000000000E0,5.616775689E-1
1.436001085E1,-5.438596606E-1,-1.754385978E-2,0.000000000E0,5.441425525E-1
1.437001038E1,-5.263158083E-1,-1.754385978E-2,0.000000000E0,5.266081248E-1
1.438000646E1,-5.087719560E-1,-1.754385978E-2,-1.754385978E-2,5.093765574E-1
1.439002623E1,-4.736842215E-1,-1.754385978E-2,-1.754385978E-2,4.743335490E-1
1.440000938E1,-4.561403394E-1,-1.754385978E-2,-1.754385978E-2,4.568146049E-1
1.441000069E1,-4.385964870E-1,-1.754385978E-2,-1.754385978E-2,4.392976809E-1
1.442001000E1,-4.035087824E-1,-1.754385978E-2,-1.754385978E-2,4.042708393E-1
1.443000077E1,-3.859649003E-1,0.000000000E0,-1.754385978E-2,3.863634186E-1
1.444002115E1,-3.508771956E-1,0.000000000E0,-1.754385978E-2,3.513155183E-1
1.444999838E1,-3.333333433E-1,0.000000000E0,-1.754385978E-2,3.337947045E-1
1.446001139E1,-2.982456088E-1,0.000000000E0,-1.754385978E-2,2.987611591E-1
1.447000531E1,-2.631579041E-1,0.000000000E0,-1.754385978E-2,2.637420511E-1
1.448001454E1,-2.280701697E-1,0.000000000E0,-1.754385978E-2,2.287439383E-1
1.449002054E1,-1.929824501E-1,0.000000000E0,-1.754385978E-2,1.937782575E-1
1.450000854E1,-1.578947306E-1,0.000000000E0,-1.754385978E-2,1.588663997E-1
1.451029969E1,-1.228070185E-1,0.000000000E0,-1.754385978E-2,1.240538222E-1
1.452002415E1,-1.052631587E-1,0.000000000E0,0.000000000E0,1.052631587E-1
1.453001269E1,-7.017543912E-2,0.000000000E0,0.000000000E0,7.017543912E-2
1.454000700E1,-1.754385978E-2,0.000000000E0,0.000000000E0,1.754385978E-2
1.455004446E1,0.000000000E0,0.000000000E0,0.000000000E0,0.000000000E0
1.456055900E1,3.508771956E-2,0.000000000E0,0.000000000E0,3.508771956E-2
1.457000385E1,7.017543912E-2,0.000000000E0,0.000000000E0,7.017543912E-2
1.458000085E1,1.052631587E-1,1.754385978E-2,0.000000000E0,1.067151329E-1
1.459000892E1,1.403508782E-1,1.754385978E-2,0.000000000E0,1.414431194E-1
1.460148846E1,1.754385978E-1,1.754385978E-2,0.000000000E0,1.763136087E-1
1.461010939E1,2.105263174E-1,3.508771956E-2,0.000000000E0,2.134302658E-1
1.462010969E1,2.456140369E-1,3.508771956E-2,0.000000000E0,2.481076444E-1
1.462999823E1,2.807017565E-1,3.508771956E-2,0.000000000E0,2.828862389E-1
1.464001423E1,3.157894611E-1,3.508771956E-2,0.000000000E0,3.177327994E-1
1.465000069E1,3.333333433E-1,3.508771956E-2,1.754385978E-2,3.356338076E-1
1.466001377E1,3.684210479E-1,1.754385978E-2,1.754385978E-2,3.692555248E-1
1.467001146E1,3.859649003E-1,1.754385978E-2,1.754385978E-2,3.867615263E-1
1.468000831E1,4.385964870E-1,1.754385978E-2,1.754385978E-2,4.392976809E-1
1.469044331E1,4.736842215E-1,1.754385978E-2,1.754385978E-2,4.743335490E-1
1.470000854E1,5.263158083E-1,1.754385978E-2,1.754385978E-2,5.269002791E-1
1.471028846E1,5.789473653E-1,1.754385978E-2,1.754385978E-2,5.794787535E-1
1.472000092E1,6.140350699E-1,1.754385978E-2,3.508771956E-2,6.152869267E-1
1.473042569E1,6.491228342E-1,1.754385978E-2,3.508771956E-2,6.503071497E-1
1.474039208E1,6.842105389E-1,1.754385978E-2,3.508771956E-2,6.853342225E-1
1.475018992E1,7.192982435E-1,1.754385978E-2,5.263157934E-2,7.214345662E-1
1.476016877E1,7.368420959E-1,1.754385978E-2,5.263157934E-2,7.389276990E-1
1.477037700E1,7.543859482E-1,1.754385978E-2,7.017543912E-2,7.578459857E-1
1.478000415E1,7.543859482E-1,3.508771956E-2,7.017543912E-2,7.584549421E-1
1.479013985E1,7.719298005E-1,3.508771956E-2,8.771929890E-2,7.776898099E-1
1.480048308E1,7.894737124E-1,3.508771956E-2,8.771929890E-2,7.951066382E-1
1.481003431E1,7.894737124E-1,3.508771956E-2,1.052631587E-1,7.972328539E-1
1.482096577E1,8.070175648E-1,3.508771956E-2,1.052631587E-1,8.146096185E-1
1.483003546E1,8.245614171E-1,3.508771956E-2,1.052631587E-1,8.319933961E-1
1.484158846E1,8.421052694E-1,3.508771956E-2,1.052631587E-1,8.493837563E-1
1.485000669E1,8.596491218E-1,3.508771956E-2,1.052631587E-1,8.667803027E-1
1.486122862E1,8.771929741E-1,5.263157934E-2,1.052631587E-1,8.850525010E-1
1.486999862E1,9.122806787E-1,5.263157934E-2,1.052631587E-1,9.198404495E-1
1.488011785E1,9.298245907E-1,5.263157934E-2,1.052631587E-1,9.372428635E-1
1.489408439E1,9.473684430E-1,5.263157934E-2,1.052631587E-1,9.546503981E-1
1.490000669E1,9.649122953E-1,3.508771956E-2,1.052631587E-1,9.712709294E-1
1.491014377E1,9.824561477E-1,3.508771956E-2,8.771929890E-2,9.869883006E-1
1.492033623E1,1.000000000E0,3.508771956E-2,8.771929890E-2,1.004452997E0
1.493168200E1,1.000000000E0,3.508771956E-2,8.771929890E-2,1.004452997E0
1.494000592E1,1.000000000E0,3.508771956E-2,8.771929890E-2,1.004452997E0
1.495008608E1,1.017543912E0,3.508771956E-2,8.771929890E-2,1.021920465E0
1.496001346E1,1.017543912E0,3.508771956E-2,8.771929890E-2,1.021920465E0
1.497025846E1,1.017543912E0,3.508771956E-2,8.771929890E-2,1.021920465E0
1.498319369E1,1.017543912E0,1.754385978E-2,8.771929890E-2,1.021468587E0
1.499003308E1,1.017543912E0,1.754385978E-2,8.771929890E-2,1.021468587E0
1.500437285E1,1.070175409E0,1.754385978E-2,7.017543912E-2,1.072617260E0
1.501003000E1,1.070175409E0,1.754385978E-2,7.017543912E-2,1.072617260E0
1.502086454E1,1.105263114E0,1.754385978E-2,7.017543912E-2,1.107627614E0
1.503015777E1,1.122807026E0,1.754385978E-2,5.263157934E-2,1.124176804E0
1.504187500E1,1.175438643E0,1.754385978E-2,5.263157934E-2,1.176747157E0
1.505001208E1,1.175438643E0,1.754385978E-2,5.263157934E-2,1.176747157E0
1.506038962E1,1.175438643E0,1.754385978E-2,5.263157934E-2,1.176747157E0
1.507059292E1,1.210526347E0,3.508771956E-2,3.508771956E-2,1.211542956E0
1.508063562E1,1.210526347E0,3.508771956E-2,3.508771956E-2,1.211542956E0
1.509201108E1,1.228070140E0,3.508771956E-2,1.754385978E-2,1.228696547E0
1.510129462E1,1.228070140E0,3.508771956E-2,1.754385978E-2,1.228696547E0
1.511345408E1,1.228070140E0,3.508771956E-2,0.000000000E0,1.228571291E0
1.512001015E1,1.228070140E0,3.508771956E-2,0.000000000E0,1.228571291E0
1.513016554E1,1.245614052E0,3.508771956E-2,0.000000000E0,1.246108147E0
1.513999939E1,1.245614052E0,3.508771956E-2,0.000000000E0,1.246108147E0
1.515103538E1,1.263157845E0,3.508771956E-2,0.000000000E0,1.263645080E0
1.516000962E1,1.263157845E0,3.508771956E-2,0.000000000E0,1.263645080E0
1.517002831E1,1.263157845E0,3.508771956E-2,0.000000000E0,1.263645080E0
1.518059292E1,1.280701756E0,3.508771956E-2,0.000000000E0,1.281182320E0
1.519079154E1,1.280701756E0,3.508771956E-2,0.000000000E0,1.281182320E0
1.520079700E1,1.280701756E0,3.508771956E-2,0.000000000E0,1.281182320E0
1.521001731E1,1.280701756E0,3.508771956E-2,-1.754385978E-2,1.281302433E0
1.522139069E1,1.263157845E0,3.508771956E-2,-3.508771956E-2,1.264132128E0
1.523055154E1,1.263157845E0,3.508771956E-2,-3.508771956E-2,1.264132128E0
1.524000523E1,1.263157845E0,3.508771956E-2,-3.508771956E-2,1.264132128E0
1.525460423E1,1.228070140E0,3.508771956E-2,-5.263157934E-2,1.229698134E0
1.526000823E1,1.228070140E0,3.508771956E-2,-5.263157934E-2,1.229698134E0
1.527000362E1,1.210526347E0,3.508771956E-2,-5.263157934E-2,1.212177903E0
1.528030692E1,1.175438643E0,3.508771956E-2,-5.263157934E-2,1.177139428E0
1.529035854E1,1.157894731E0,3.508771956E-2,-5.263157934E-2,1.159621248E0
1.530087800E1,1.122807026E0,3.508771956E-2,-3.508771956E-2,1.123902982E0
1.531003308E1,1.070175409E0,1.754385978E-2,-3.508771956E-2,1.070894179E0
1.532066415E1,1.070175409E0,1.754385978E-2,-3.508771956E-2,1.070894179E0
1.533001438E1,1.052631617E0,1.754385978E-2,-3.508771956E-2,1.053362357E0
1.534000062E1,1.017543912E0,1.754385978E-2,-3.508771956E-2,1.018299832E0
1.535010769E1,1.000000000E0,1.754385978E-2,-1.754385978E-2,1.000307740E0
1.535999985E1,9.824561477E-1,1.754385978E-2,-1.754385978E-2,9.827693809E-1
1.537110692E1,9.824561477E-1,1.754385978E-2,-1.754385978E-2,9.827693809E-1
1.538006646E1,9.649122953E-1,1.754385978E-2,0.000000000E0,9.650717718E-1
1.539001200E1,9.649122953E-1,1.754385978E-2,0.000000000E0,9.650717718E-1
1.540005139E1,9.473684430E-1,1.754385978E-2,0.000000000E0,9.475308722E-1
1.541000715E1,9.473684430E-1,1.754385978E-2,0.000000000E0,9.475308722E-1
1.542184408E1,9.473684430E-1,0.000000000E0,0.000000000E0,9.473684430E-1
1.543050592E1,9.649122953E-1,0.000000000E0,0.000000000E0,9.649122953E-1
1.544034908E1,9.473684430E-1,0.000000000E0,1.754385978E-2,9.475308722E-1
1.544999877E1,9.473684430E-1,0.000000000E0,0.000000000E0,9.473684430E-1
1.546000508E1,9.122806787E-1,0.000000000E0,0.000000000E0,9.122806787E-1
1.547000462E1,8.947368264E-1,1.754385978E-2,0.000000000E0,8.949088085E-1
1.548001646E1,8.596491218E-1,1.754385978E-2,0.000000000E0,8.598281221E-1
1.549007131E1,8.245614171E-1,1.754385978E-2,0.000000000E0,8.247480328E-1
1.550131962E1,8.070175648E-1,0.000000000E0,0.000000000E0,8.070175648E-1
1.551002000E1,8.070175648E-1,0.000000000E0,0.000000000E0,8.070175648E-1
1.552000531E1,7.894737124E-1,0.000000000E0,0.000000000E0,7.894737124E-1
1.553004285E1,7.894737124E-1,0.000000000E0,0.000000000E0,7.894737124E-1
1.553999715E1,7.894737124E-1,0.000000000E0,0.000000000E0,7.894737124E-1
1.555001792E1,7.894737124E-1,0.000000000E0,-1.754385978E-2,7.896686202E-1
1.555999838E1,7.894737124E-1,0.000000000E0,-1.754385978E-2,7.896686202E-1
1.557098331E1,7.894737124E-1,0.000000000E0,-3.508771956E-2,7.902530549E-1
1.558002700E1,7.719298005E-1,0.000000000E0,-3.508771956E-2,7.727268372E-1
1.559007177E1,7.719298005E-1,0.000000000E0,-3.508771956E-2,7.727268372E-1
1.560011346E1,7.543859482E-1,0.000000000E0,-5.263157934E-2,7.562197048E-1
1.561006908E1,7.192982435E-1,0.000000000E0,-5.263157934E-2,7.212212187E-1
1.562039531E1,7.017543912E-1,0.000000000E0,-5.263157934E-2,7.037253077E-1
1.563000715E1,6.842105389E-1,0.000000000E0,-5.263157934E-2,6.862318447E-1
1.564079439E1,6.666666865E-1,0.000000000E0,-7.017543912E-2,6.703499558E-1
1.564999854E1,6.315789223E-1,0.000000000E0,-7.017543912E-2,6.354655988E-1
1.566000238E1,6.140350699E-1,0.000000000E0,-7.017543912E-2,6.180320860E-1
1.567015908E1,5.789473653E-1,0.000000000E0,-8.771929890E-2,5.855550590E-1
1.568004085E1,5.438596606E-1,0.000000000E0,-8.771929890E-2,5.508883788E-1
1.569068531E1,5.087719560E-1,0.000000000E0,-1.052631587E-1,5.195471449E-1
1.570017323E1,4.912280738E-1,0.000000000E0,-1.052631587E-1,5.023796902E-1
1.571004023E1,4.561403394E-1,0.000000000E0,-1.052631587E-1,4.681285526E-1
1.572097092E1,4.385964870E-1,0.000000000E0,-1.052631587E-1,4.510512288E-1
1.572999677E1,4.035087824E-1,0.000000000E0,-1.228070185E-1,4.217830026E-1
1.573999977E1,3.684210479E-1,0.000000000E0,-1.228070185E-1,3.883498839E-1
1.575000508E1,3.508771956E-1,0.000000000E0,-1.052631587E-1,3.663265469E-1
1.576099308E1,3.157894611E-1,0.000000000E0,-1.052631587E-1,3.328713210E-1
1.577004900E1,2.982456088E-1,0.000000000E0,-1.052631587E-1,3.162764230E-1
1.578091992E1,2.807017565E-1,0.000000000E0,-1.052631587E-1,2.997896073E-1
1.579029492E1,2.631579041E-1,0.000000000E0,-1.052631587E-1,2.834297357E-1
1.580011831E1,2.280701697E-1,0.000000000E0,-1.228070185E-1,2.590319789E-1
1.581000815E1,1.929824501E-1,0.000000000E0,-1.228070185E-1,2.287439395E-1
1.582097792E1,1.754385978E-1,0.000000000E0,-1.228070185E-1,2.141501001E-1
1.583162392E1,1.403508782E-1,0.000000000E0,-1.228070185E-1,1.864937876E-1
1.584008831E1,1.052631587E-1,0.000000000E0,-1.228070185E-1,1.617463952E-1
1.585000031E1,7.017543912E-2,-1.754385978E-2,-1.228070185E-1,1.425269906E-1
1.586002223E1,3.508771956E-2,-1.754385978E-2,-1.228070185E-1,1.289205137E-1
1.587007600E1,0.000000000E0,-1.754385978E-2,-1.052631587E-1,1.067151329E-1
1.588059731E1,-1.754385978E-2,-1.754385978E-2,-1.052631587E-1,1.081476149E-1
1.589149162E1,-5.263157934E-2,-1.754385978E-2,-1.052631587E-1,1.189882462E-1
1.590079662E1,-8.771929890E-2,-1.754385978E-2,-8.771929890E-2,1.252882190E-1
1.591054277E1,-1.228070185E-1,-1.754385978E-2,-8.771929890E-2,1.519342825E-1
1.592104254E1,-1.578947306E-1,-1.754385978E-2,-7.017543912E-2,1.736753443E-1
1.593022569E1,-1.929824501E-1,-1.754385978E-2,-7.017543912E-2,2.060936810E-1
1.594000285E1,-1.929824501E-1,-1.754385978E-2,-7.017543912E-2,2.060936810E-1
1.595036723E1,-2.105263174E-1,-1.754385978E-2,-7.017543912E-2,2.226066252E-1
1.595999885E1,-2.456140369E-1,-1.754385978E-2,-5.263157934E-2,2.518017579E-1
1.597000254E1,-2.807017565E-1,-1.754385978E-2,-5.263157934E-2,2.861316939E-1
1.598028238E1,-3.684210479E-1,-1.754385978E-2,-3.508771956E-2,3.705037161E-1
1.599002208E1,-3.684210479E-1,-1.754385978E-2,-3.508771956E-2,3.705037161E-1
1.600002339E1,-4.035087824E-1,-1.754385978E-2,-3.508771956E-2,4.054112388E-1
1.601001192E1,-4.385964870E-1,-1.754385978E-2,-3.508771956E-2,4.403473782E-1
1.602258846E1,-5.087719560E-1,-3.508771956E-2,-1.754385978E-2,5.102821163E-1
1.603000408E1,-5.087719560E-1,-3.508771956E-2,-1.754385978E-2,5.102821163E-1
1.604111238E1,-5.438596606E-1,-3.508771956E-2,-1.754385978E-2,5.452726525E-1
1.605027839E1,-5.789473653E-1,-3.508771956E-2,-1.754385978E-2,5.802749235E-1
1.606030762E1,-5.964912176E-1,-3.508771956E-2,-1.754385978E-2,5.977798155E-1
1.607020677E1,-6.315789223E-1,-3.508771956E-2,-1.754385978E-2,6.327960731E-1
1.608000615E1,-6.666666865E-1,-3.508771956E-2,0.000000000E0,6.675894090E-1
1.609018946E1,-6.666666865E-1,-3.508771956E-2,0.000000000E0,6.675894090E-1
1.610000892E1,-7.017543912E-1,-3.508771956E-2,0.000000000E0,7.026310366E-1
1.611003354E1,-7.192982435E-1,-3.508771956E-2,0.000000000E0,7.201535331E-1
1.612001762E1,-7.192982435E-1,-3.508771956E-2,0.000000000E0,7.201535331E-1
1.613002115E1,-7.368420959E-1,-3.508771956E-2,-1.754385978E-2,7.378856343E-1
1.614000208E1,-7.719298005E-1,-5.263157934E-2,0.000000000E0,7.737219785E-1
